sID,trial_number,block_number,response,response_button,response_time,correct,outcome,previous_outcome,stay_shift,new_block,correct_polygon,rewarded_polygon,prob_triangle_rewarded,position_triangle
201,1,1,triangle,right,0.836730109998825,0,lose,[],[],1,circle,circle,0.2,right
201,2,1,circle,right,0.871934820001115,1,win,lose,shift,0,circle,circle,0.2,left
201,3,1,triangle,left,0.305986220000705,0,lose,win,shift,0,circle,circle,0.2,left
201,4,1,triangle,left,0.892046220000339,0,win,lose,stay,0,circle,triangle,0.2,left
201,5,1,circle,left,2.2927014199995,1,win,win,shift,0,circle,circle,0.2,right
201,6,1,triangle,right,0.455954819999533,0,win,win,shift,0,circle,triangle,0.2,right
201,7,1,circle,right,0.41704271999879,1,lose,win,shift,0,circle,triangle,0.2,left
201,8,1,triangle,right,0.641860220001035,0,win,lose,shift,0,circle,triangle,0.2,right
201,9,1,triangle,left,0.330951219999406,0,lose,win,stay,0,circle,circle,0.2,left
201,10,1,triangle,right,1.70605812000031,0,lose,lose,stay,0,circle,circle,0.2,right
201,11,1,circle,left,0.34206081999946,1,win,lose,shift,0,circle,circle,0.2,right
201,12,1,circle,right,1.56734391999998,1,win,win,stay,0,circle,circle,0.2,left
201,13,1,circle,right,0.51722792000146,1,win,win,stay,0,circle,circle,0.2,left
201,14,1,triangle,left,0.792200919999232,0,lose,win,shift,0,circle,circle,0.2,left
201,15,1,circle,left,0.810863520000566,1,win,lose,shift,0,circle,circle,0.2,right
201,16,1,triangle,right,0.856040820000999,0,lose,win,shift,0,circle,circle,0.2,right
201,17,2,circle,left,1.05603732000236,0,win,lose,shift,1,triangle,circle,0.8,right
201,18,2,triangle,left,1.08120622000024,1,lose,win,shift,0,triangle,circle,0.8,left
201,19,2,triangle,left,0.867336319999595,1,win,lose,stay,0,triangle,triangle,0.8,left
201,20,2,triangle,left,0.818658820000564,1,win,win,stay,0,triangle,triangle,0.8,left
201,21,2,triangle,right,0.38098071999957,1,win,win,stay,0,triangle,triangle,0.8,right
201,22,2,circle,left,0.335807020001084,0,lose,win,shift,0,triangle,triangle,0.8,right
201,23,2,circle,right,0.567039519999526,0,lose,lose,stay,0,triangle,triangle,0.8,left
201,24,2,circle,left,1.61747681999987,0,lose,lose,stay,0,triangle,triangle,0.8,right
201,25,2,triangle,left,0.981034020000152,1,win,lose,shift,0,triangle,triangle,0.8,left
201,26,2,circle,right,0.823563119998653,0,lose,win,shift,0,triangle,triangle,0.8,left
201,27,2,circle,left,0.492116020001049,0,lose,lose,stay,0,triangle,triangle,0.8,right
201,28,2,triangle,right,0.91736321999997,1,win,lose,shift,0,triangle,triangle,0.8,right
201,29,2,triangle,right,0.591976620000423,1,lose,win,stay,0,triangle,circle,0.8,right
201,30,2,circle,left,0.491967920001116,0,lose,lose,shift,0,triangle,triangle,0.8,right
201,31,2,circle,left,0.491825119997884,0,lose,lose,stay,0,triangle,triangle,0.8,right
201,32,2,triangle,right,0.33107272000052,1,win,lose,shift,0,triangle,triangle,0.8,right
201,33,3,triangle,right,0.292202319998978,0,lose,win,stay,1,circle,circle,0.5,right
201,34,3,circle,left,0.342070720000265,1,lose,lose,shift,0,circle,triangle,0.5,right
201,35,3,triangle,right,0.431003120000241,0,win,lose,shift,0,circle,triangle,0.5,right
201,36,3,circle,right,0.656067320000147,1,lose,win,shift,0,circle,triangle,0.5,left
201,37,3,circle,right,1.49200431999998,1,win,lose,stay,0,circle,circle,0.5,left
201,38,3,circle,right,1.28113001999918,1,win,win,stay,0,circle,circle,0.5,left
201,39,3,triangle,left,1.07267972000045,0,lose,win,shift,0,circle,circle,0.5,left
201,40,3,circle,left,0.573433019999356,1,win,lose,shift,0,circle,circle,0.5,right
201,41,3,circle,left,0.455719420000605,1,win,win,stay,0,circle,circle,0.5,right
201,42,3,triangle,left,0.506170319999001,0,lose,win,shift,0,circle,circle,0.5,left
201,43,3,triangle,left,1.05547172000115,0,lose,lose,stay,0,circle,circle,0.5,left
201,44,3,circle,left,0.696883919999891,1,lose,lose,shift,0,circle,triangle,0.5,right
201,45,3,triangle,left,1.25625961999867,0,lose,lose,shift,0,circle,circle,0.5,left
201,46,3,circle,right,0.321737920001397,1,lose,lose,shift,0,circle,triangle,0.5,left
201,47,3,triangle,left,0.406151319999481,0,win,lose,shift,0,circle,triangle,0.5,left
201,48,3,circle,left,2.66727671999979,1,win,win,shift,0,circle,circle,0.5,right
201,49,4,triangle,left,1.95597631999954,1,win,win,shift,1,triangle,triangle,0.8,left
201,50,4,triangle,right,2.31067511999936,1,win,win,stay,0,triangle,triangle,0.8,right
201,51,4,triangle,right,2.25626172000011,1,lose,win,stay,0,triangle,circle,0.8,right
201,52,4,triangle,left,2.10619902000144,1,lose,lose,stay,0,triangle,circle,0.8,left
201,53,4,circle,left,3.32252212000094,0,lose,lose,shift,0,triangle,triangle,0.8,right
201,54,4,circle,right,1.4311419200003,0,lose,lose,stay,0,triangle,triangle,0.8,left
201,55,4,triangle,left,2.56723201999921,1,win,lose,shift,0,triangle,triangle,0.8,left
201,56,4,circle,left,1.04192392000004,0,win,win,shift,0,triangle,circle,0.8,right
201,57,4,circle,right,1.15663622000102,0,win,win,stay,0,triangle,circle,0.8,left
201,58,4,circle,left,1.98118061999958,0,win,win,stay,0,triangle,circle,0.8,right
201,59,4,circle,left,2.54316311999901,0,lose,win,stay,0,triangle,triangle,0.8,right
201,60,4,triangle,left,1.37125941999875,1,win,lose,shift,0,triangle,triangle,0.8,left
201,61,4,triangle,right,1.94246862000182,1,win,win,stay,0,triangle,triangle,0.8,right
201,62,4,circle,right,2.89221091999934,0,lose,win,shift,0,triangle,triangle,0.8,left
201,63,4,circle,left,1.4357776199995,0,lose,lose,stay,0,triangle,triangle,0.8,right
201,64,4,triangle,right,0.96712972000023,1,lose,lose,shift,0,triangle,circle,0.8,right
201,65,5,circle,left,0.806013219998931,1,win,lose,shift,1,circle,circle,0.2,right
201,66,5,circle,left,0.567275220000738,1,win,win,stay,0,circle,circle,0.2,right
201,67,5,circle,left,0.581149920000826,1,win,win,stay,0,circle,circle,0.2,right
201,68,5,circle,right,0.355939519999083,1,win,win,stay,0,circle,circle,0.2,left
201,69,5,circle,left,0.323138920000929,1,win,win,stay,0,circle,circle,0.2,right
201,70,5,triangle,left,0.341916319997836,0,lose,win,shift,0,circle,circle,0.2,left
201,71,5,triangle,right,0.435826019998785,0,win,lose,stay,0,circle,triangle,0.2,right
201,72,5,circle,left,0.342149319998498,1,win,win,shift,0,circle,circle,0.2,right
201,73,5,circle,left,0.30598012000155,1,win,win,stay,0,circle,circle,0.2,right
201,74,5,circle,right,0.535734119999688,1,win,win,stay,0,circle,circle,0.2,left
201,75,6,circle,right,0.305910519999088,0,lose,win,stay,1,triangle,triangle,0.8,left
201,76,6,triangle,left,0.430796620001274,1,win,lose,shift,0,triangle,triangle,0.8,left
201,77,6,circle,left,0.392058620000171,0,win,win,shift,0,triangle,circle,0.8,right
201,78,6,triangle,right,0.56704191999961,1,win,win,shift,0,triangle,triangle,0.8,right
201,79,6,triangle,left,0.305754020000677,1,win,win,stay,0,triangle,triangle,0.8,left
201,80,6,triangle,right,0.260883920000197,1,lose,win,stay,0,triangle,circle,0.8,right
201,81,6,circle,left,0.33086072000151,0,lose,lose,shift,0,triangle,triangle,0.8,right
201,82,6,triangle,right,0.26695072000075,1,win,lose,shift,0,triangle,triangle,0.8,right
201,83,6,circle,right,0.230901320001067,0,win,win,shift,0,triangle,circle,0.8,left
201,84,6,triangle,right,0.241920820000814,1,win,win,shift,0,triangle,triangle,0.8,right
201,85,6,triangle,left,0.33103532000132,1,win,win,stay,0,triangle,triangle,0.8,left
201,86,7,triangle,right,0.285845020000124,0,win,win,stay,1,circle,triangle,0.5,right
201,87,7,circle,right,0.367058019999604,1,win,win,shift,0,circle,circle,0.5,left
201,88,7,triangle,right,0.256683920000796,0,lose,win,shift,0,circle,circle,0.5,right
201,89,7,triangle,left,0.323198020001655,0,lose,lose,stay,0,circle,circle,0.5,left
201,90,7,triangle,right,0.266847119999511,0,lose,lose,stay,0,circle,circle,0.5,right
201,91,7,circle,left,0.267141820000688,1,win,lose,shift,0,circle,circle,0.5,right
201,92,7,triangle,left,0.281763019998834,0,lose,win,shift,0,circle,circle,0.5,left
201,93,7,triangle,right,0.331067119997897,0,lose,lose,stay,0,circle,circle,0.5,right
201,94,7,triangle,left,0.392303419999735,0,lose,lose,stay,0,circle,circle,0.5,left
201,95,7,circle,left,0.392314619999524,1,lose,lose,shift,0,circle,triangle,0.5,right
201,96,7,triangle,right,0.430943520001165,0,win,lose,shift,0,circle,triangle,0.5,right
201,97,7,triangle,right,0.392032319999998,0,lose,win,stay,0,circle,circle,0.5,right
201,98,7,triangle,left,0.917103220001081,0,win,lose,stay,0,circle,triangle,0.5,left
201,99,7,circle,left,0.381002919999446,1,lose,win,shift,0,circle,triangle,0.5,right
201,100,7,circle,right,0.531117820000873,1,lose,lose,stay,0,circle,triangle,0.5,left
201,101,7,triangle,left,0.416941519999455,0,lose,lose,shift,0,circle,circle,0.5,left
201,102,8,circle,left,0.630914519999351,1,win,lose,shift,1,circle,circle,0.2,right
201,103,8,circle,left,0.305955820000236,1,win,win,stay,0,circle,circle,0.2,right
201,104,8,circle,right,0.296735720001379,1,win,win,stay,0,circle,circle,0.2,left
201,105,8,triangle,left,0.368833820000873,0,lose,win,shift,0,circle,circle,0.2,left
201,106,8,triangle,right,0.431097819999195,0,lose,lose,stay,0,circle,circle,0.2,right
201,107,8,triangle,left,0.371688720000748,0,lose,lose,stay,0,circle,circle,0.2,left
201,108,8,triangle,left,0.317236119999507,0,lose,lose,stay,0,circle,circle,0.2,left
201,109,8,circle,right,0.292331120002927,1,win,lose,shift,0,circle,circle,0.2,left
201,110,8,triangle,right,1.01733092000177,0,lose,win,shift,0,circle,circle,0.2,right
201,111,8,circle,right,1.71085832000063,1,win,lose,shift,0,circle,circle,0.2,left
201,112,8,circle,left,0.316894419998789,1,win,win,stay,0,circle,circle,0.2,right
201,113,8,circle,left,0.330874919998678,1,win,win,stay,0,circle,circle,0.2,right
201,114,8,triangle,left,0.617197820000001,0,lose,win,shift,0,circle,circle,0.2,left
201,115,8,triangle,left,0.246307420000448,0,lose,lose,stay,0,circle,circle,0.2,left
201,116,8,circle,right,0.272462519998953,1,lose,lose,shift,0,circle,triangle,0.2,left
201,117,8,circle,right,0.247006319999855,1,win,lose,stay,0,circle,circle,0.2,left
201,118,9,triangle,left,1.45700361999843,1,win,win,shift,1,triangle,triangle,0.8,left
201,119,9,circle,left,0.256121020000137,0,lose,win,shift,0,triangle,triangle,0.8,right
201,120,9,circle,left,0.242413820000365,0,lose,lose,stay,0,triangle,triangle,0.8,right
201,121,9,triangle,right,0.230901719998656,1,win,lose,shift,0,triangle,triangle,0.8,right
201,122,9,triangle,right,0.255934020000495,1,win,win,stay,0,triangle,triangle,0.8,right
201,123,9,circle,left,0.297262019999835,0,lose,win,shift,0,triangle,triangle,0.8,right
201,124,9,triangle,right,0.305958519998967,1,win,lose,shift,0,triangle,triangle,0.8,right
201,125,9,circle,right,0.366713119999986,0,lose,win,shift,0,triangle,triangle,0.8,left
201,126,9,circle,right,0.217012419998355,0,lose,lose,stay,0,triangle,triangle,0.8,left
201,127,9,triangle,left,0.230820920000042,1,win,lose,shift,0,triangle,triangle,0.8,left
201,128,9,triangle,right,0.255825719999848,1,lose,win,stay,0,triangle,circle,0.8,right
201,129,9,triangle,right,0.167859119999775,1,lose,lose,stay,0,triangle,circle,0.8,right
201,130,9,circle,left,0.317257220000101,0,lose,lose,shift,0,triangle,triangle,0.8,right
201,131,9,triangle,right,0.191556919997311,1,lose,lose,shift,0,triangle,circle,0.8,right
201,132,9,triangle,right,0.217300920001435,1,win,lose,stay,0,triangle,triangle,0.8,right
201,133,9,circle,left,0.267438520000724,0,lose,win,shift,0,triangle,triangle,0.8,right
201,134,10,circle,right,0.242295819998617,1,lose,lose,stay,1,circle,triangle,0.2,left
201,135,10,circle,left,0.331053620000603,1,win,lose,stay,0,circle,circle,0.2,right
201,136,10,triangle,left,0.506124120001914,0,lose,win,shift,0,circle,circle,0.2,left
201,137,10,circle,left,0.642077720000088,1,lose,lose,shift,0,circle,triangle,0.2,right
201,138,10,triangle,left,0.230862019998312,0,lose,lose,shift,0,circle,circle,0.2,left
201,139,10,circle,right,0.35597671999858,1,win,lose,shift,0,circle,circle,0.2,left
201,140,10,circle,right,0.317305419999684,1,win,win,stay,0,circle,circle,0.2,left
201,141,10,circle,left,0.282642319998558,1,lose,win,stay,0,circle,triangle,0.2,right
201,142,10,triangle,right,0.331091020001622,0,lose,lose,shift,0,circle,circle,0.2,right
201,143,10,triangle,left,0.310912719998669,0,win,lose,stay,0,circle,triangle,0.2,left
201,144,10,triangle,left,0.292349519999334,0,lose,win,stay,0,circle,circle,0.2,left
201,145,10,circle,left,0.731192319999536,1,win,lose,shift,0,circle,circle,0.2,right
201,146,10,circle,left,0.855979020001541,1,lose,win,stay,0,circle,triangle,0.2,right
201,147,10,circle,right,0.33102942000005,1,win,lose,stay,0,circle,circle,0.2,left
201,148,10,triangle,right,0.342334020000635,0,lose,win,shift,0,circle,circle,0.2,right
201,149,10,triangle,left,0.367287420001958,0,lose,lose,stay,0,circle,circle,0.2,left
201,150,11,circle,right,0.50587811999867,0,lose,lose,shift,1,triangle,triangle,0.5,left
201,151,11,circle,right,0.347027919999164,0,win,lose,stay,0,triangle,circle,0.5,left
201,152,11,circle,left,0.330958619999365,0,win,win,stay,0,triangle,circle,0.5,right
201,153,11,triangle,left,0.405772820000493,1,win,win,shift,0,triangle,triangle,0.5,left
201,154,11,triangle,left,0.506009919999997,1,win,win,stay,0,triangle,triangle,0.5,left
201,155,11,circle,right,0.422030719997565,0,win,win,shift,0,triangle,circle,0.5,left
201,156,11,circle,right,0.292025519998788,0,win,win,stay,0,triangle,circle,0.5,left
201,157,11,circle,left,0.291998720000265,0,win,win,stay,0,triangle,circle,0.5,right
201,158,11,triangle,left,0.38073501999861,1,lose,win,shift,0,triangle,circle,0.5,left
201,159,11,triangle,left,0.697632520001207,1,win,lose,stay,0,triangle,triangle,0.5,left
201,160,11,circle,right,1.03119142000105,0,win,win,shift,0,triangle,circle,0.5,left
201,161,11,circle,right,0.531008219999421,0,lose,win,stay,0,triangle,triangle,0.5,left
201,162,11,triangle,left,0.330907019999358,1,win,lose,shift,0,triangle,triangle,0.5,left
201,163,11,triangle,left,0.592058220001491,1,win,win,stay,0,triangle,triangle,0.5,left
201,164,11,circle,left,0.456002719998651,0,lose,win,shift,0,triangle,triangle,0.5,right
201,165,11,circle,right,0.317299719999937,0,lose,lose,stay,0,triangle,triangle,0.5,left
201,166,12,triangle,left,0.355786719999742,0,lose,lose,shift,1,circle,circle,0.2,left
201,167,12,circle,right,0.256008719998135,1,win,lose,shift,0,circle,circle,0.2,left
201,168,12,circle,right,0.367272120000052,1,lose,win,stay,0,circle,triangle,0.2,left
201,169,12,circle,right,0.30603291999978,1,win,lose,stay,0,circle,circle,0.2,left
201,170,12,circle,right,0.43117772000187,1,lose,win,stay,0,circle,triangle,0.2,left
201,171,12,triangle,left,0.292048420000356,0,lose,lose,shift,0,circle,circle,0.2,left
201,172,12,circle,right,0.306743319999441,1,win,lose,shift,0,circle,circle,0.2,left
201,173,12,circle,right,1.04218172000037,1,win,win,stay,0,circle,circle,0.2,left
201,174,12,circle,left,1.13093781999851,1,win,win,stay,0,circle,circle,0.2,right
201,175,12,triangle,left,0.98754321999877,0,lose,win,shift,0,circle,circle,0.2,left
201,176,13,circle,left,0.566996619998463,0,win,lose,shift,1,triangle,circle,0.8,right
201,177,13,triangle,right,0.580965620001734,1,win,win,shift,0,triangle,triangle,0.8,right
201,178,13,triangle,right,1.11077271999966,1,win,win,stay,0,triangle,triangle,0.8,right
201,179,13,circle,left,1.41094771999997,0,win,win,shift,0,triangle,circle,0.8,right
201,180,13,triangle,right,1.16744971999833,1,win,win,shift,0,triangle,triangle,0.8,right
201,181,13,circle,right,1.08114892000049,0,lose,win,shift,0,triangle,triangle,0.8,left
201,182,13,circle,left,0.756034519998138,0,lose,lose,stay,0,triangle,triangle,0.8,right
201,183,13,circle,left,0.610757919999742,0,lose,lose,stay,0,triangle,triangle,0.8,right
201,184,13,triangle,right,0.530800420001469,1,win,lose,shift,0,triangle,triangle,0.8,right
201,185,13,triangle,right,0.367069919999267,1,win,win,stay,0,triangle,triangle,0.8,right
201,186,13,circle,left,0.456069320000097,0,lose,win,shift,0,triangle,triangle,0.8,right
201,187,13,triangle,right,0.330843820000155,1,win,lose,shift,0,triangle,triangle,0.8,right
201,188,13,circle,right,0.356004319999556,0,lose,win,shift,0,triangle,triangle,0.8,left
201,189,13,circle,left,0.916971619999458,0,lose,lose,stay,0,triangle,triangle,0.8,right
201,190,13,triangle,right,1.50602692000029,1,win,lose,shift,0,triangle,triangle,0.8,right
201,191,13,triangle,left,0.856666419998874,1,win,win,stay,0,triangle,triangle,0.8,left
201,192,14,triangle,right,0.921293420000438,0,win,win,stay,1,circle,triangle,0.5,right
201,193,14,triangle,right,0.855936819998533,0,lose,win,stay,0,circle,circle,0.5,right
201,194,14,triangle,left,0.467259820001345,0,win,lose,stay,0,circle,triangle,0.5,left
201,195,14,circle,left,0.606153619999532,1,lose,win,shift,0,circle,triangle,0.5,right
201,196,14,triangle,left,0.530989019998742,0,lose,lose,shift,0,circle,circle,0.5,left
201,197,14,triangle,right,0.48104561999935,0,win,lose,stay,0,circle,triangle,0.5,right
201,198,14,triangle,right,0.517024620001393,0,lose,win,stay,0,circle,circle,0.5,right
201,199,14,triangle,left,0.555972820000534,0,win,lose,stay,0,circle,triangle,0.5,left
201,200,14,circle,left,0.556048120000924,1,win,win,shift,0,circle,circle,0.5,right
201,201,14,triangle,left,1.80623061999722,0,win,win,shift,0,circle,triangle,0.5,left
201,202,14,triangle,right,0.885979420001604,0,lose,win,stay,0,circle,circle,0.5,right
201,203,14,circle,left,0.381084619999456,1,win,lose,shift,0,circle,circle,0.5,right
201,204,14,triangle,left,0.730952619998789,0,win,win,shift,0,circle,triangle,0.5,left
201,205,14,triangle,left,0.794302719998086,0,lose,win,stay,0,circle,circle,0.5,left
201,206,14,triangle,left,1.55695921999904,0,lose,lose,stay,0,circle,circle,0.5,left
201,207,14,circle,right,0.76621632000024,1,win,lose,shift,0,circle,circle,0.5,left
201,208,15,circle,right,0.692197219999798,0,lose,win,stay,1,triangle,triangle,0.8,left
201,209,15,circle,left,0.517116220000389,0,win,lose,stay,0,triangle,circle,0.8,right
201,210,15,circle,left,0.842117120002513,0,lose,win,stay,0,triangle,triangle,0.8,right
201,211,15,circle,left,0.680984720000197,0,lose,lose,stay,0,triangle,triangle,0.8,right
201,212,15,triangle,right,0.347405219999928,1,win,lose,shift,0,triangle,triangle,0.8,right
201,213,15,triangle,right,0.335756520002178,1,win,win,stay,0,triangle,triangle,0.8,right
201,214,15,circle,left,0.260708019997764,0,win,win,shift,0,triangle,circle,0.8,right
201,215,15,triangle,left,0.367348019999554,1,win,win,shift,0,triangle,triangle,0.8,left
201,216,15,triangle,left,0.442387819999567,1,lose,win,stay,0,triangle,circle,0.8,left
201,217,15,circle,right,0.291981820000728,0,lose,lose,shift,0,triangle,triangle,0.8,left
201,218,15,triangle,left,0.355893519998062,1,win,lose,shift,0,triangle,triangle,0.8,left
201,219,15,circle,left,0.406099720001293,0,lose,win,shift,0,triangle,triangle,0.8,right
201,220,15,triangle,right,0.255935920000411,1,win,lose,shift,0,triangle,triangle,0.8,right
201,221,15,circle,right,0.317507820000174,0,lose,win,shift,0,triangle,triangle,0.8,left
201,222,15,triangle,left,0.305766719999156,1,win,lose,shift,0,triangle,triangle,0.8,left
201,223,15,triangle,left,0.281071019999217,1,win,win,stay,0,triangle,triangle,0.8,left
201,224,16,circle,left,0.291965520000304,1,win,win,shift,1,circle,circle,0.2,right
201,225,16,triangle,left,0.306761319998259,0,lose,win,shift,0,circle,circle,0.2,left
201,226,16,circle,right,2.12286441999822,1,lose,lose,shift,0,circle,triangle,0.2,left
201,227,16,circle,left,0.380968920000669,1,win,lose,stay,0,circle,circle,0.2,right
201,228,16,circle,left,0.380824520001624,1,win,win,stay,0,circle,circle,0.2,right
201,229,16,triangle,left,0.397762219998185,0,lose,win,shift,0,circle,circle,0.2,left
201,230,16,triangle,right,0.34240372000022,0,lose,lose,stay,0,circle,circle,0.2,right
201,231,16,triangle,right,0.331101120002131,0,lose,lose,stay,0,circle,circle,0.2,right
201,232,16,triangle,right,0.417053519999172,0,win,lose,stay,0,circle,triangle,0.2,right
201,233,16,circle,right,0.281094420000954,1,win,win,shift,0,circle,circle,0.2,left
201,234,16,triangle,right,0.38566191999962,0,lose,win,shift,0,circle,circle,0.2,right
201,235,16,triangle,left,0.29224461999911,0,lose,lose,stay,0,circle,circle,0.2,left
201,236,16,triangle,right,0.316857719999462,0,lose,lose,stay,0,circle,circle,0.2,right
201,237,16,triangle,left,0.756058419998226,0,win,lose,stay,0,circle,triangle,0.2,left
201,238,16,circle,left,0.331059919999461,1,win,win,shift,0,circle,circle,0.2,right
201,239,16,triangle,right,0.221806519999518,0,lose,win,shift,0,circle,circle,0.2,right
201,240,17,triangle,right,0.231019120001292,1,win,lose,stay,1,triangle,triangle,0.5,right
201,241,17,triangle,left,0.205973719999747,1,lose,win,stay,0,triangle,circle,0.5,left
201,242,17,circle,right,0.206162819999008,0,win,lose,shift,0,triangle,circle,0.5,left
201,243,17,circle,left,0.205837720001,0,win,win,stay,0,triangle,circle,0.5,right
201,244,17,circle,left,0.196705320000547,0,win,win,stay,0,triangle,circle,0.5,right
201,245,17,triangle,left,0.230958820000524,1,win,win,shift,0,triangle,triangle,0.5,left
201,246,17,circle,right,0.66084851999949,0,win,win,shift,0,triangle,circle,0.5,left
201,247,17,circle,left,0.267228619999514,0,win,win,stay,0,triangle,circle,0.5,right
201,248,17,circle,left,0.192054119999739,0,win,win,stay,0,triangle,circle,0.5,right
201,249,17,circle,right,0.217492420000781,0,lose,win,stay,0,triangle,triangle,0.5,left
201,250,17,triangle,left,0.280979519999164,1,win,lose,shift,0,triangle,triangle,0.5,left
202,1,1,circle,right,1.00214972999856,1,win,[],[],1,circle,circle,0.2,left
202,2,1,triangle,right,1.35738805999972,0,win,win,shift,0,circle,triangle,0.2,right
202,3,1,triangle,left,0.697995759999685,0,win,win,stay,0,circle,triangle,0.2,left
202,4,1,circle,left,0.793483759999617,1,win,win,shift,0,circle,circle,0.2,right
202,5,1,triangle,left,0.45816276000005,0,lose,win,shift,0,circle,circle,0.2,left
202,6,1,circle,right,0.35706756000036,1,win,lose,shift,0,circle,circle,0.2,left
202,7,1,circle,left,0.367848260000756,1,win,win,stay,0,circle,circle,0.2,right
202,8,1,triangle,left,0.283001059999151,0,lose,win,shift,0,circle,circle,0.2,left
202,9,1,triangle,right,1.28241895999963,0,win,lose,stay,0,circle,triangle,0.2,right
202,10,1,triangle,left,0.932261959999778,0,lose,win,stay,0,circle,circle,0.2,left
202,11,1,circle,right,0.332049059999918,1,win,lose,shift,0,circle,circle,0.2,left
202,12,1,triangle,right,0.282063359998574,0,win,win,shift,0,circle,triangle,0.2,right
202,13,1,triangle,left,0.737045560000297,0,win,win,stay,0,circle,triangle,0.2,left
202,14,1,triangle,left,1.2573460600006,0,lose,win,stay,0,circle,circle,0.2,left
202,15,1,triangle,left,1.10730995999984,0,lose,lose,stay,0,circle,circle,0.2,left
202,16,1,triangle,right,0.523733459999676,0,lose,lose,stay,0,circle,circle,0.2,right
202,17,2,circle,right,0.493459659999644,0,lose,lose,shift,1,triangle,triangle,0.8,left
202,18,2,circle,right,0.632004060000327,0,lose,lose,stay,0,triangle,triangle,0.8,left
202,19,2,triangle,left,0.31609902999935,1,win,lose,shift,0,triangle,triangle,0.8,left
202,20,2,triangle,left,0.522444660000474,1,lose,win,stay,0,triangle,circle,0.8,left
202,21,2,triangle,right,0.31877465999878,1,win,lose,stay,0,triangle,triangle,0.8,right
202,22,2,triangle,right,0.248887060000015,1,win,win,stay,0,triangle,triangle,0.8,right
202,23,2,triangle,left,0.593317359999673,1,lose,win,stay,0,triangle,circle,0.8,left
202,24,2,triangle,right,0.493113460000131,1,win,lose,stay,0,triangle,triangle,0.8,right
202,25,2,triangle,right,0.317711659999986,1,win,win,stay,0,triangle,triangle,0.8,right
202,26,2,triangle,right,0.368452259999685,1,win,win,stay,0,triangle,triangle,0.8,right
202,27,3,circle,right,0.942652859999725,1,lose,win,shift,1,circle,triangle,0.5,left
202,28,3,triangle,left,0.37323355999979,0,win,lose,shift,0,circle,triangle,0.5,left
202,29,3,triangle,right,0.318199259999346,0,lose,win,stay,0,circle,circle,0.5,right
202,30,3,triangle,right,0.906985960000384,0,lose,lose,stay,0,circle,circle,0.5,right
202,31,3,circle,right,0.412128059999304,1,lose,lose,shift,0,circle,triangle,0.5,left
202,32,3,triangle,left,0.968538660000377,0,win,lose,shift,0,circle,triangle,0.5,left
202,33,3,triangle,right,0.373174160000417,0,win,win,stay,0,circle,triangle,0.5,right
202,34,3,triangle,right,0.41767536000043,0,lose,win,stay,0,circle,circle,0.5,right
202,35,3,triangle,left,0.882286959998964,0,lose,lose,stay,0,circle,circle,0.5,left
202,36,3,circle,right,1.40728505999959,1,win,lose,shift,0,circle,circle,0.5,left
202,37,3,triangle,right,0.792934760000207,0,lose,win,shift,0,circle,circle,0.5,right
202,38,3,triangle,right,0.718480459999228,0,win,lose,stay,0,circle,triangle,0.5,right
202,39,3,circle,left,0.518048660000204,1,win,win,shift,0,circle,circle,0.5,right
202,40,3,triangle,right,1.47410626000055,0,lose,win,shift,0,circle,circle,0.5,right
202,41,3,circle,left,0.257276559999809,1,win,lose,shift,0,circle,circle,0.5,right
202,42,3,circle,left,0.582198659998539,1,win,win,stay,0,circle,circle,0.5,right
202,43,4,circle,right,0.462026759999389,0,lose,win,stay,1,triangle,triangle,0.8,left
202,44,4,triangle,left,0.707062059999771,1,win,lose,shift,0,triangle,triangle,0.8,left
202,45,4,circle,left,0.318004060000931,0,lose,win,shift,0,triangle,triangle,0.8,right
202,46,4,circle,right,0.657152859999769,0,lose,lose,stay,0,triangle,triangle,0.8,left
202,47,4,circle,left,1.14814746000047,0,win,lose,stay,0,triangle,circle,0.8,right
202,48,4,triangle,left,0.847965060000206,1,win,win,shift,0,triangle,triangle,0.8,left
202,49,4,circle,left,0.757283859999916,0,lose,win,shift,0,triangle,triangle,0.8,right
202,50,4,triangle,right,0.225543629999265,1,win,lose,shift,0,triangle,triangle,0.8,right
202,51,4,circle,left,0.658126659999652,0,lose,win,shift,0,triangle,triangle,0.8,right
202,52,4,circle,left,0.807275359999039,0,lose,lose,stay,0,triangle,triangle,0.8,right
202,53,4,circle,left,0.297465459998421,0,lose,lose,stay,0,triangle,triangle,0.8,right
202,54,4,triangle,right,0.257100660000106,1,win,lose,shift,0,triangle,triangle,0.8,right
202,55,4,triangle,right,0.218084059999455,1,win,win,stay,0,triangle,triangle,0.8,right
202,56,4,circle,right,0.243100659999072,0,win,win,shift,0,triangle,circle,0.8,left
202,57,4,triangle,right,0.132069859999319,1,lose,win,shift,0,triangle,circle,0.8,right
202,58,4,circle,left,0.818058959999689,0,lose,lose,shift,0,triangle,triangle,0.8,right
202,59,5,triangle,right,0.507129560000067,0,lose,lose,shift,1,circle,circle,0.2,right
202,60,5,circle,right,0.405036629998904,1,lose,lose,shift,0,circle,triangle,0.2,left
202,61,5,circle,left,0.493471860000682,1,lose,lose,stay,0,circle,triangle,0.2,right
202,62,5,triangle,right,0.242995659999906,0,lose,lose,shift,0,circle,circle,0.2,right
202,63,5,circle,left,0.35731966000003,1,win,lose,shift,0,circle,circle,0.2,right
202,64,5,circle,left,0.732294760000514,1,win,win,stay,0,circle,circle,0.2,right
202,65,5,triangle,left,0.523694860000433,0,win,win,shift,0,circle,triangle,0.2,left
202,66,5,triangle,left,0.433070159999261,0,lose,win,stay,0,circle,circle,0.2,left
202,67,5,triangle,left,0.568128560000332,0,lose,lose,stay,0,circle,circle,0.2,left
202,68,5,circle,right,0.392752759999894,1,win,lose,shift,0,circle,circle,0.2,left
202,69,5,circle,right,0.268383659999927,1,win,win,stay,0,circle,circle,0.2,left
202,70,5,triangle,left,0.257100259999788,0,lose,win,shift,0,circle,circle,0.2,left
202,71,5,triangle,right,0.257082860000082,0,win,lose,stay,0,circle,triangle,0.2,right
202,72,5,triangle,right,0.543355859999792,0,lose,win,stay,0,circle,circle,0.2,right
202,73,5,circle,left,0.331917159999648,1,win,lose,shift,0,circle,circle,0.2,right
202,74,5,circle,left,0.26753355999972,1,win,win,stay,0,circle,circle,0.2,right
202,75,6,triangle,left,0.343445160000556,1,lose,win,shift,1,triangle,circle,0.8,left
202,76,6,triangle,left,0.71898106000026,1,lose,lose,stay,0,triangle,circle,0.8,left
202,77,6,triangle,right,0.482223059999342,1,lose,lose,stay,0,triangle,circle,0.8,right
202,78,6,circle,left,0.58233866000046,0,lose,lose,shift,0,triangle,triangle,0.8,right
202,79,6,circle,right,0.45722115999979,0,lose,lose,stay,0,triangle,triangle,0.8,left
202,80,6,circle,left,0.462047760000132,0,lose,lose,stay,0,triangle,triangle,0.8,right
202,81,6,circle,right,0.317647660000148,0,lose,lose,stay,0,triangle,triangle,0.8,left
202,82,6,circle,right,0.307246460000897,0,win,lose,stay,0,triangle,circle,0.8,left
202,83,6,circle,right,0.332141159999082,0,lose,win,stay,0,triangle,triangle,0.8,left
202,84,6,circle,right,0.568023259999791,0,lose,lose,stay,0,triangle,triangle,0.8,left
202,85,6,triangle,right,0.642581260000952,1,win,lose,shift,0,triangle,triangle,0.8,right
202,86,6,circle,right,1.35702786000002,0,lose,win,shift,0,triangle,triangle,0.8,left
202,87,6,circle,left,1.01841775999947,0,lose,lose,stay,0,triangle,triangle,0.8,right
202,88,6,triangle,left,0.432181159999345,1,win,lose,shift,0,triangle,triangle,0.8,left
202,89,6,triangle,left,0.657188860000133,1,win,win,stay,0,triangle,triangle,0.8,left
202,90,6,triangle,left,0.418283659999361,1,win,win,stay,0,triangle,triangle,0.8,left
202,91,7,triangle,left,0.63196095999956,0,lose,win,stay,1,circle,circle,0.5,left
202,92,7,circle,right,0.607130659999711,1,win,lose,shift,0,circle,circle,0.5,left
202,93,7,triangle,right,0.38224505999915,0,lose,win,shift,0,circle,circle,0.5,right
202,94,7,triangle,right,1.69319485999949,0,lose,lose,stay,0,circle,circle,0.5,right
202,95,7,circle,right,0.918482260000928,1,lose,lose,shift,0,circle,triangle,0.5,left
202,96,7,triangle,left,0.482227760000569,0,win,lose,shift,0,circle,triangle,0.5,left
202,97,7,circle,right,0.436455729999579,1,lose,win,shift,0,circle,triangle,0.5,left
202,98,7,circle,left,0.232320660000369,1,win,lose,stay,0,circle,circle,0.5,right
202,99,7,triangle,left,0.282092260000354,0,win,win,shift,0,circle,triangle,0.5,left
202,100,7,triangle,left,0.248264859999836,0,lose,win,stay,0,circle,circle,0.5,left
202,101,7,circle,right,0.167985459998818,1,win,lose,shift,0,circle,circle,0.5,left
202,102,7,circle,right,0.186588329999722,1,lose,win,stay,0,circle,triangle,0.5,left
202,103,7,circle,left,0.743524959999377,1,lose,lose,stay,0,circle,triangle,0.5,right
202,104,7,circle,right,0.282193960000768,1,lose,lose,stay,0,circle,triangle,0.5,left
202,105,8,circle,right,0.0981648599999971,1,win,lose,stay,1,circle,circle,0.2,left
202,106,8,circle,right,0.95726336000007,1,win,win,stay,0,circle,circle,0.2,left
202,107,8,circle,left,1.14315186000022,1,win,win,stay,0,circle,circle,0.2,right
202,108,8,circle,right,0.682145159999891,1,win,win,stay,0,circle,circle,0.2,left
202,109,8,triangle,left,0.937154060000466,0,lose,win,shift,0,circle,circle,0.2,left
202,110,8,triangle,left,1.03232216000015,0,win,lose,stay,0,circle,triangle,0.2,left
202,111,8,triangle,left,0.532324759999028,0,lose,win,stay,0,circle,circle,0.2,left
202,112,8,triangle,left,0.932447660000435,0,win,lose,stay,0,circle,triangle,0.2,left
202,113,8,triangle,right,0.556961860000229,0,lose,win,stay,0,circle,circle,0.2,right
202,114,8,circle,left,0.642897859998811,1,lose,lose,shift,0,circle,triangle,0.2,right
202,115,8,circle,left,1.05737765999947,1,win,lose,stay,0,circle,circle,0.2,right
202,116,8,triangle,right,0.393449059999512,0,lose,win,shift,0,circle,circle,0.2,right
202,117,8,circle,left,0.707138160000795,1,lose,lose,shift,0,circle,triangle,0.2,right
202,118,8,circle,right,1.23215965999952,1,win,lose,stay,0,circle,circle,0.2,left
202,119,8,circle,right,0.482074460000149,1,win,win,stay,0,circle,circle,0.2,left
202,120,8,circle,right,0.393199059999461,1,lose,win,stay,0,circle,triangle,0.2,left
202,121,9,circle,left,0.892564759999914,0,win,lose,stay,1,triangle,circle,0.8,right
202,122,9,circle,left,0.432239159999881,0,win,win,stay,0,triangle,circle,0.8,right
202,123,9,circle,left,0.122926759999245,0,lose,win,stay,0,triangle,triangle,0.8,right
202,124,9,triangle,left,0.468393460000698,1,win,lose,shift,0,triangle,triangle,0.8,left
202,125,9,circle,left,0.0570222599990302,0,lose,win,shift,0,triangle,triangle,0.8,right
202,126,9,triangle,left,0.492985659999249,1,win,lose,shift,0,triangle,triangle,0.8,left
202,127,9,triangle,right,0.343404660000488,1,win,win,stay,0,triangle,triangle,0.8,right
202,128,9,triangle,left,0.28216945999975,1,win,win,stay,0,triangle,triangle,0.8,left
202,129,9,circle,left,0.773352960000011,0,lose,win,shift,0,triangle,triangle,0.8,right
202,130,9,circle,left,0.257266960000379,0,lose,lose,stay,0,triangle,triangle,0.8,right
202,131,9,circle,right,0.262039660000482,0,win,lose,stay,0,triangle,circle,0.8,left
202,132,9,triangle,right,0.317977659999087,1,win,win,shift,0,triangle,triangle,0.8,right
202,133,9,triangle,right,0.107217759999912,1,lose,win,stay,0,triangle,circle,0.8,right
202,134,9,circle,left,1.00802535999992,0,lose,lose,shift,0,triangle,triangle,0.8,right
202,135,9,triangle,left,0.943827159999273,1,win,lose,shift,0,triangle,triangle,0.8,left
202,136,9,triangle,left,1.82307825999942,1,lose,win,stay,0,triangle,circle,0.8,left
202,137,10,triangle,right,0.331911459999901,0,lose,lose,stay,1,circle,circle,0.2,right
202,138,10,circle,left,0.212006960000508,1,win,lose,shift,0,circle,circle,0.2,right
202,139,10,triangle,right,0.357243659999767,0,lose,win,shift,0,circle,circle,0.2,right
202,140,10,triangle,right,0.607204259999889,0,lose,lose,stay,0,circle,circle,0.2,right
202,141,10,triangle,right,0.612079059999814,0,win,lose,stay,0,circle,triangle,0.2,right
202,142,10,triangle,left,0.79319335999935,0,lose,win,stay,0,circle,circle,0.2,left
202,143,10,triangle,left,0.293355259999771,0,lose,lose,stay,0,circle,circle,0.2,left
202,144,10,triangle,left,0.368474160000005,0,lose,lose,stay,0,circle,circle,0.2,left
202,145,10,circle,right,0.382264759999998,1,win,lose,shift,0,circle,circle,0.2,left
202,146,10,circle,right,0.532226659999651,1,win,win,stay,0,circle,circle,0.2,left
202,147,10,triangle,right,0.232158759999948,0,lose,win,shift,0,circle,circle,0.2,right
202,148,10,triangle,left,0.632185860000391,0,lose,lose,stay,0,circle,circle,0.2,left
202,149,10,triangle,right,0.312071760000435,0,lose,lose,stay,0,circle,circle,0.2,right
202,150,10,circle,right,0.437043760000051,1,win,lose,shift,0,circle,circle,0.2,left
202,151,10,triangle,right,1.68232306000027,0,lose,win,shift,0,circle,circle,0.2,right
202,152,10,circle,right,0.718206260000443,1,win,lose,shift,0,circle,circle,0.2,left
202,153,11,circle,right,0.575320229999306,0,win,win,stay,1,triangle,circle,0.5,left
202,154,11,circle,right,0.662053759999253,0,win,win,stay,0,triangle,circle,0.5,left
202,155,11,circle,left,0.412005159999353,0,lose,win,stay,0,triangle,triangle,0.5,right
202,156,11,circle,left,0.718470559999332,0,win,lose,stay,0,triangle,circle,0.5,right
202,157,11,circle,right,0.657310859999598,0,win,win,stay,0,triangle,circle,0.5,left
202,158,11,circle,left,0.662072160000207,0,lose,win,stay,0,triangle,triangle,0.5,right
202,159,11,circle,right,3.48274205999951,0,lose,lose,stay,0,triangle,triangle,0.5,left
202,160,11,circle,left,0.392840260000412,0,win,lose,stay,0,triangle,circle,0.5,right
202,161,11,circle,left,0.507130560000405,0,lose,win,stay,0,triangle,triangle,0.5,right
202,162,11,triangle,right,0.443472959999781,1,lose,lose,shift,0,triangle,circle,0.5,right
202,163,11,circle,right,0.293024460000197,0,win,lose,shift,0,triangle,circle,0.5,left
202,164,11,circle,right,0.3429908600001,0,lose,win,stay,0,triangle,triangle,0.5,left
202,165,11,circle,right,0.482988959999602,0,win,lose,stay,0,triangle,circle,0.5,left
202,166,11,circle,right,0.88216175999969,0,lose,win,stay,0,triangle,triangle,0.5,left
202,167,11,circle,left,0.582348359999742,0,lose,lose,stay,0,triangle,triangle,0.5,right
202,168,11,triangle,right,0.573193559999709,1,lose,lose,shift,0,triangle,circle,0.5,right
202,169,12,circle,left,1.7323801600005,1,win,lose,shift,1,circle,circle,0.2,right
202,170,12,triangle,left,1.98251186000016,0,lose,win,shift,0,circle,circle,0.2,left
202,171,12,circle,right,0.842730259999371,1,lose,lose,shift,0,circle,triangle,0.2,left
202,172,12,circle,right,0.682357060000868,1,win,lose,stay,0,circle,circle,0.2,left
202,173,12,circle,right,0.992845359999592,1,win,win,stay,0,circle,circle,0.2,left
202,174,12,circle,right,0.582173260000673,1,win,win,stay,0,circle,circle,0.2,left
202,175,12,triangle,right,0.579977430000326,0,lose,win,shift,0,circle,circle,0.2,right
202,176,12,circle,right,0.607291160000386,1,win,lose,shift,0,circle,circle,0.2,left
202,177,12,circle,left,0.908023259999936,1,win,win,stay,0,circle,circle,0.2,right
202,178,12,triangle,right,1.09323906000009,0,lose,win,shift,0,circle,circle,0.2,right
202,179,13,circle,left,0.518254659999002,0,win,lose,shift,1,triangle,circle,0.8,right
202,180,13,circle,left,0.343106559999796,0,lose,win,stay,0,triangle,triangle,0.8,right
202,181,13,circle,left,0.632140560000153,0,win,lose,stay,0,triangle,circle,0.8,right
202,182,13,circle,left,0.643096559999321,0,lose,win,stay,0,triangle,triangle,0.8,right
202,183,13,triangle,left,0.342967560000034,1,win,lose,shift,0,triangle,triangle,0.8,left
202,184,13,triangle,left,0.457253560000026,1,win,win,stay,0,triangle,triangle,0.8,left
202,185,13,triangle,left,0.812002659999052,1,win,win,stay,0,triangle,triangle,0.8,left
202,186,13,circle,left,0.557318260000102,0,lose,win,shift,0,triangle,triangle,0.8,right
202,187,13,triangle,right,0.50732255999992,1,lose,lose,shift,0,triangle,circle,0.8,right
202,188,13,triangle,left,0.418087559999549,1,win,lose,stay,0,triangle,triangle,0.8,left
202,189,13,triangle,right,0.675744030000715,1,win,win,stay,0,triangle,triangle,0.8,right
202,190,13,circle,right,0.467659660000209,0,lose,win,shift,0,triangle,triangle,0.8,left
202,191,13,circle,left,0.758170960000825,0,win,lose,stay,0,triangle,circle,0.8,right
202,192,13,circle,left,0.392957359999855,0,win,win,stay,0,triangle,circle,0.8,right
202,193,13,circle,right,0.493497159999606,0,lose,win,stay,0,triangle,triangle,0.8,left
202,194,13,triangle,right,0.982168260000435,1,win,lose,shift,0,triangle,triangle,0.8,right
202,195,14,circle,left,0.432184960000086,1,win,win,shift,1,circle,circle,0.5,right
202,196,14,triangle,left,0.8739049600008,0,win,win,shift,0,circle,triangle,0.5,left
202,197,14,triangle,left,0.632233259999339,0,win,win,stay,0,circle,triangle,0.5,left
202,198,14,triangle,left,0.323002459998861,0,win,win,stay,0,circle,triangle,0.5,left
202,199,14,circle,right,0.482228160000886,1,lose,win,shift,0,circle,triangle,0.5,left
202,200,14,triangle,left,0.54342085999906,0,lose,lose,shift,0,circle,circle,0.5,left
202,201,14,circle,right,0.457107560000622,1,win,lose,shift,0,circle,circle,0.5,left
202,202,14,circle,left,0.707194560000062,1,lose,win,stay,0,circle,triangle,0.5,right
202,203,14,triangle,left,1.59324735999962,0,win,lose,shift,0,circle,triangle,0.5,left
202,204,14,triangle,left,0.382976959998814,0,lose,win,stay,0,circle,circle,0.5,left
202,205,14,triangle,right,0.418139359999259,0,lose,lose,stay,0,circle,circle,0.5,right
202,206,14,circle,right,0.643514760000471,1,lose,lose,shift,0,circle,triangle,0.5,left
202,207,14,triangle,left,0.282038960000136,0,lose,lose,shift,0,circle,circle,0.5,left
202,208,14,circle,left,1.11219395999979,1,lose,lose,shift,0,circle,triangle,0.5,right
202,209,14,triangle,left,0.393471260000297,0,lose,lose,shift,0,circle,circle,0.5,left
202,210,14,triangle,right,0.243376059999719,0,win,lose,stay,0,circle,triangle,0.5,right
202,211,15,triangle,right,1.43231485999968,1,win,win,stay,1,triangle,triangle,0.8,right
202,212,15,circle,right,1.48715856000035,0,win,win,shift,0,triangle,circle,0.8,left
202,213,15,circle,right,0.692720059999374,0,lose,win,stay,0,triangle,triangle,0.8,left
202,214,15,triangle,left,0.807258460000412,1,win,lose,shift,0,triangle,triangle,0.8,left
202,215,15,circle,left,0.525738329999513,0,lose,win,shift,0,triangle,triangle,0.8,right
202,216,15,triangle,right,1.53225845999987,1,win,lose,shift,0,triangle,triangle,0.8,right
202,217,15,triangle,left,0.332286260000728,1,win,win,stay,0,triangle,triangle,0.8,left
202,218,15,triangle,right,0.298423859999275,1,lose,win,stay,0,triangle,circle,0.8,right
202,219,15,circle,left,0.45708495999952,0,win,lose,shift,0,triangle,circle,0.8,right
202,220,15,circle,right,0.281728559999465,0,lose,win,stay,0,triangle,triangle,0.8,left
202,221,15,triangle,right,0.567890360001002,1,lose,lose,shift,0,triangle,circle,0.8,right
202,222,15,circle,left,0.307135860000017,0,lose,lose,shift,0,triangle,triangle,0.8,right
202,223,15,circle,left,0.237727059999997,0,lose,lose,stay,0,triangle,triangle,0.8,right
202,224,15,triangle,right,0.232204460000503,1,win,lose,shift,0,triangle,triangle,0.8,right
202,225,15,triangle,right,0.55722526000045,1,lose,win,stay,0,triangle,circle,0.8,right
202,226,15,triangle,right,0.448918460000641,1,win,lose,stay,0,triangle,triangle,0.8,right
202,227,16,triangle,left,1.59321435999937,0,win,win,stay,1,circle,triangle,0.2,left
202,228,16,triangle,left,0.268078260000038,0,win,win,stay,0,circle,triangle,0.2,left
202,229,16,triangle,left,0.657249460000457,0,lose,win,stay,0,circle,circle,0.2,left
202,230,16,circle,right,0.282133359998625,1,win,lose,shift,0,circle,circle,0.2,left
202,231,16,circle,left,0.0821976600000198,1,win,win,stay,0,circle,circle,0.2,right
202,232,16,circle,left,0.822462659999474,1,win,win,stay,0,circle,circle,0.2,right
202,233,16,triangle,left,1.50735845999952,0,lose,win,shift,0,circle,circle,0.2,left
202,234,16,triangle,right,0.732168060000731,0,lose,lose,stay,0,circle,circle,0.2,right
202,235,16,circle,right,1.95738405999964,1,win,lose,shift,0,circle,circle,0.2,left
202,236,16,circle,left,0.317981760000293,1,win,win,stay,0,circle,circle,0.2,right
202,237,16,circle,left,0.257112959999176,1,win,win,stay,0,circle,circle,0.2,right
202,238,16,circle,right,0.211896560000241,1,win,win,stay,0,circle,circle,0.2,left
202,239,17,circle,right,0.482248960000106,0,lose,win,stay,1,triangle,triangle,0.5,left
202,240,17,triangle,left,0.518483359999664,1,lose,lose,shift,0,triangle,circle,0.5,left
202,241,17,circle,right,0.267666260000624,0,win,lose,shift,0,triangle,circle,0.5,left
202,242,17,triangle,right,0.34302665999985,1,lose,win,shift,0,triangle,circle,0.5,right
202,243,17,triangle,left,0.292966959999831,1,lose,lose,stay,0,triangle,circle,0.5,left
202,244,17,circle,right,0.23213646000022,0,lose,lose,shift,0,triangle,triangle,0.5,left
202,245,17,triangle,left,0.30732406000061,1,win,lose,shift,0,triangle,triangle,0.5,left
202,246,17,circle,left,0.0572236600000906,0,lose,win,shift,0,triangle,triangle,0.5,right
202,247,17,circle,right,0.2929973600003,0,lose,lose,stay,0,triangle,triangle,0.5,left
202,248,17,circle,left,1.8574504599992,0,win,lose,stay,0,triangle,circle,0.5,right
202,249,17,triangle,left,1.2574049599998,1,lose,win,shift,0,triangle,circle,0.5,left
202,250,17,circle,left,0.393516860000091,0,lose,lose,shift,0,triangle,triangle,0.5,right
203,1,1,triangle,left,1.28803532999973,1,lose,[],[],1,triangle,circle,0.8,left
203,2,1,triangle,left,1.48668596000061,1,lose,lose,stay,0,triangle,circle,0.8,left
203,3,1,circle,right,0.347846859999663,0,win,lose,shift,0,triangle,circle,0.8,left
203,4,1,circle,right,0.442995260001226,0,lose,win,stay,0,triangle,triangle,0.8,left
203,5,1,triangle,right,2.9820029600005,1,win,lose,shift,0,triangle,triangle,0.8,right
203,6,1,triangle,left,0.406671560000177,1,win,win,stay,0,triangle,triangle,0.8,left
203,7,1,triangle,left,0.8117264600005,1,win,win,stay,0,triangle,triangle,0.8,left
203,8,1,triangle,right,0.642828160000136,1,lose,win,stay,0,triangle,circle,0.8,right
203,9,1,triangle,left,0.356819659999928,1,win,lose,stay,0,triangle,triangle,0.8,left
203,10,1,circle,right,0.331818560000102,0,lose,win,shift,0,triangle,triangle,0.8,left
203,11,2,triangle,right,0.492718560000867,0,lose,lose,shift,1,circle,circle,0.19999999999999996,right
203,12,2,circle,right,1.1818184599997,1,win,lose,shift,0,circle,circle,0.19999999999999996,left
203,13,2,circle,left,1.65690986000118,1,win,win,stay,0,circle,circle,0.19999999999999996,right
203,14,2,circle,left,0.867746860000807,1,win,win,stay,0,circle,circle,0.19999999999999996,right
203,15,2,triangle,right,0.631782460000977,0,win,win,shift,0,circle,triangle,0.19999999999999996,right
203,16,2,circle,right,1.8626472599999,1,lose,win,shift,0,circle,triangle,0.19999999999999996,left
203,17,2,triangle,left,0.482400260000759,0,win,lose,shift,0,circle,triangle,0.19999999999999996,left
203,18,2,triangle,left,0.431613460000335,0,win,win,stay,0,circle,triangle,0.19999999999999996,left
203,19,2,triangle,left,0.361714859999665,0,lose,win,stay,0,circle,circle,0.19999999999999996,left
203,20,2,triangle,left,0.292804360000446,0,lose,lose,stay,0,circle,circle,0.19999999999999996,left
203,21,2,circle,left,0.556745260000753,1,win,lose,shift,0,circle,circle,0.19999999999999996,right
203,22,2,circle,right,1.31820466000045,1,win,win,stay,0,circle,circle,0.19999999999999996,left
203,23,2,triangle,right,3.29325916000016,0,lose,win,shift,0,circle,circle,0.19999999999999996,right
203,24,2,triangle,left,0.631739160000507,0,win,lose,stay,0,circle,triangle,0.19999999999999996,left
203,25,2,circle,right,0.64257956000074,1,win,win,shift,0,circle,circle,0.19999999999999996,left
203,26,2,circle,right,0.592623660000754,1,win,win,stay,0,circle,circle,0.19999999999999996,left
203,27,3,circle,left,0.742299559999992,0,lose,win,stay,1,triangle,triangle,0.5,right
203,28,3,triangle,right,0.33168606000072,1,win,lose,shift,0,triangle,triangle,0.5,right
203,29,3,triangle,left,1.48169606000101,1,lose,win,stay,0,triangle,circle,0.5,left
203,30,3,triangle,right,0.381441660000746,1,lose,lose,stay,0,triangle,circle,0.5,right
203,31,3,circle,right,0.74784376000116,0,win,lose,shift,0,triangle,circle,0.5,left
203,32,3,circle,right,0.456609959999696,0,win,win,stay,0,triangle,circle,0.5,left
203,33,3,circle,left,0.679325160000189,0,lose,win,stay,0,triangle,triangle,0.5,right
203,34,3,triangle,right,0.456731559999753,1,win,lose,shift,0,triangle,triangle,0.5,right
203,35,3,triangle,right,0.606636659999822,1,lose,win,stay,0,triangle,circle,0.5,right
203,36,3,circle,left,0.431704460000219,0,win,lose,shift,0,triangle,circle,0.5,right
203,37,3,circle,left,0.492827860000943,0,win,win,stay,0,triangle,circle,0.5,right
203,38,3,triangle,right,0.26804046000052,1,win,win,shift,0,triangle,triangle,0.5,right
203,39,3,triangle,right,0.456715360000999,1,lose,win,stay,0,triangle,circle,0.5,right
203,40,3,circle,left,0.391946660000031,0,lose,lose,shift,0,triangle,triangle,0.5,right
203,41,3,triangle,right,0.282578459999968,1,lose,lose,shift,0,triangle,circle,0.5,right
203,42,3,circle,right,0.286482460000116,0,win,lose,shift,0,triangle,circle,0.5,left
203,43,4,circle,right,0.598388159999558,1,lose,win,stay,1,circle,triangle,0.19999999999999996,left
203,44,4,triangle,left,0.442453659999956,0,lose,lose,shift,0,circle,circle,0.19999999999999996,left
203,45,4,circle,left,0.6066627600012,1,win,lose,shift,0,circle,circle,0.19999999999999996,right
203,46,4,triangle,left,0.531825160001063,0,lose,win,shift,0,circle,circle,0.19999999999999996,left
203,47,4,triangle,right,0.756783460001316,0,lose,lose,stay,0,circle,circle,0.19999999999999996,right
203,48,4,circle,left,1.03660985999977,1,win,lose,shift,0,circle,circle,0.19999999999999996,right
203,49,4,circle,left,0.331676060000063,1,win,win,stay,0,circle,circle,0.19999999999999996,right
203,50,4,triangle,right,0.361598960001174,0,win,win,shift,0,circle,triangle,0.19999999999999996,right
203,51,4,circle,left,0.272291059999588,1,win,win,shift,0,circle,circle,0.19999999999999996,right
203,52,4,circle,right,0.531732559999909,1,lose,win,stay,0,circle,triangle,0.19999999999999996,left
203,53,4,triangle,left,0.317553860000771,0,lose,lose,shift,0,circle,circle,0.19999999999999996,left
203,54,4,circle,left,0.417845360000683,1,win,lose,shift,0,circle,circle,0.19999999999999996,right
203,55,4,triangle,left,0.70680086000084,0,lose,win,shift,0,circle,circle,0.19999999999999996,left
203,56,4,triangle,left,0.381725760001245,0,win,lose,stay,0,circle,triangle,0.19999999999999996,left
203,57,4,triangle,left,0.381650760000412,0,lose,win,stay,0,circle,circle,0.19999999999999996,left
203,58,4,circle,right,0.431694260000768,1,win,lose,shift,0,circle,circle,0.19999999999999996,left
203,59,5,circle,right,0.542677960001129,0,lose,win,stay,1,triangle,triangle,0.8,left
203,60,5,circle,left,0.306588960001136,0,lose,lose,stay,0,triangle,triangle,0.8,right
203,61,5,circle,right,0.422353460000522,0,lose,lose,stay,0,triangle,triangle,0.8,left
203,62,5,triangle,left,0.317890460000854,1,win,lose,shift,0,triangle,triangle,0.8,left
203,63,5,triangle,right,0.317859860000681,1,win,win,stay,0,triangle,triangle,0.8,right
203,64,5,circle,left,0.331663160000971,0,lose,win,shift,0,triangle,triangle,0.8,right
203,65,5,triangle,left,0.356875960000252,1,win,lose,shift,0,triangle,triangle,0.8,left
203,66,5,triangle,left,0.531789560000107,1,win,win,stay,0,triangle,triangle,0.8,left
203,67,5,triangle,left,0.411589360001017,1,win,win,stay,0,triangle,triangle,0.8,left
203,68,5,triangle,left,0.361673860000337,1,win,win,stay,0,triangle,triangle,0.8,left
203,69,5,circle,left,1.62291705999905,0,lose,win,shift,0,triangle,triangle,0.8,right
203,70,5,triangle,left,0.367577560000427,1,lose,lose,shift,0,triangle,circle,0.8,left
203,71,6,circle,right,0.456748360000347,1,win,lose,shift,1,circle,circle,0.19999999999999996,left
203,72,6,circle,right,0.368025459999444,1,win,win,stay,0,circle,circle,0.19999999999999996,left
203,73,6,circle,left,0.642839560001448,1,lose,win,stay,0,circle,triangle,0.19999999999999996,right
203,74,6,triangle,right,0.417712759999631,0,lose,lose,shift,0,circle,circle,0.19999999999999996,right
203,75,6,triangle,left,0.517745460000697,0,lose,lose,stay,0,circle,circle,0.19999999999999996,left
203,76,6,triangle,left,0.318119560000923,0,win,lose,stay,0,circle,triangle,0.19999999999999996,left
203,77,6,triangle,left,0.392565359999935,0,lose,win,stay,0,circle,circle,0.19999999999999996,left
203,78,6,circle,left,0.506869860000734,1,win,lose,shift,0,circle,circle,0.19999999999999996,right
203,79,6,triangle,right,1.13263396000093,0,win,win,shift,0,circle,triangle,0.19999999999999996,right
203,80,6,triangle,left,0.411649160000707,0,lose,win,stay,0,circle,circle,0.19999999999999996,left
203,81,6,triangle,right,0.40677746000074,0,lose,lose,stay,0,circle,circle,0.19999999999999996,right
203,82,6,circle,left,0.336664960000235,1,win,lose,shift,0,circle,circle,0.19999999999999996,right
203,83,6,circle,left,0.531591360000675,1,lose,win,stay,0,circle,triangle,0.19999999999999996,right
203,84,6,triangle,right,0.742629460000899,0,lose,lose,shift,0,circle,circle,0.19999999999999996,right
203,85,6,triangle,left,0.442917659999694,0,lose,lose,stay,0,circle,circle,0.19999999999999996,left
203,86,6,triangle,right,0.306735960000879,0,lose,lose,stay,0,circle,circle,0.19999999999999996,right
203,87,7,circle,right,0.396987559999616,0,lose,lose,shift,1,triangle,triangle,0.5,left
203,88,7,triangle,left,0.531636059999983,1,win,lose,shift,0,triangle,triangle,0.5,left
203,89,7,triangle,left,0.88184136000018,1,lose,win,stay,0,triangle,circle,0.5,left
203,90,7,circle,right,0.856650260000606,0,lose,lose,shift,0,triangle,triangle,0.5,left
203,91,7,triangle,left,0.297450359999857,1,lose,lose,shift,0,triangle,circle,0.5,left
203,92,7,triangle,right,0.381663160001153,1,lose,lose,stay,0,triangle,circle,0.5,right
203,93,7,circle,left,0.306508560000111,0,lose,lose,shift,0,triangle,triangle,0.5,right
203,94,7,triangle,right,0.336505960000068,1,lose,lose,shift,0,triangle,circle,0.5,right
203,95,7,circle,left,0.331743959999585,0,win,lose,shift,0,triangle,circle,0.5,right
203,96,7,circle,left,1.14233206000063,0,lose,win,stay,0,triangle,triangle,0.5,right
203,97,7,triangle,right,1.31781506000061,1,win,lose,shift,0,triangle,triangle,0.5,right
203,98,7,triangle,right,1.51787766000143,1,lose,win,stay,0,triangle,circle,0.5,right
203,99,7,triangle,left,0.831765960000666,1,lose,lose,stay,0,triangle,circle,0.5,left
203,100,7,triangle,left,0.386482060000162,1,lose,lose,stay,0,triangle,circle,0.5,left
203,101,8,triangle,left,0.361692860000403,1,win,lose,stay,1,triangle,triangle,0.8,left
203,102,8,circle,left,1.46792425999956,0,win,win,shift,0,triangle,circle,0.8,right
203,103,8,triangle,left,1.66813465999985,1,win,win,shift,0,triangle,triangle,0.8,left
203,104,8,triangle,left,0.767551860000822,1,win,win,stay,0,triangle,triangle,0.8,left
203,105,8,triangle,left,0.83157545999984,1,win,win,stay,0,triangle,triangle,0.8,left
203,106,8,circle,left,0.46132236000085,0,lose,win,shift,0,triangle,triangle,0.8,right
203,107,8,triangle,right,0.806439359999786,1,win,lose,shift,0,triangle,triangle,0.8,right
203,108,8,triangle,right,0.34273716000007,1,win,win,stay,0,triangle,triangle,0.8,right
203,109,8,triangle,right,0.306375160000243,1,win,win,stay,0,triangle,triangle,0.8,right
203,110,8,triangle,left,0.636679160000313,1,win,win,stay,0,triangle,triangle,0.8,left
203,111,9,triangle,right,0.472788660000333,0,win,win,stay,1,circle,triangle,0.19999999999999996,right
203,112,9,triangle,left,0.331759759999841,0,lose,win,stay,0,circle,circle,0.19999999999999996,left
203,113,9,circle,left,0.417727459999696,1,win,lose,shift,0,circle,circle,0.19999999999999996,right
203,114,9,circle,right,0.492820260000371,1,win,win,stay,0,circle,circle,0.19999999999999996,left
203,115,9,circle,right,0.506808960000853,1,lose,win,stay,0,circle,triangle,0.19999999999999996,left
203,116,9,triangle,right,0.581831260001309,0,lose,lose,shift,0,circle,circle,0.19999999999999996,right
203,117,9,circle,left,0.306611960000737,1,win,lose,shift,0,circle,circle,0.19999999999999996,right
203,118,9,circle,left,0.317606360000354,1,win,win,stay,0,circle,circle,0.19999999999999996,right
203,119,9,circle,left,0.392754860000423,1,win,win,stay,0,circle,circle,0.19999999999999996,right
203,120,9,circle,right,1.13185516000067,1,win,win,stay,0,circle,circle,0.19999999999999996,left
203,121,10,circle,right,0.382704859999649,0,win,win,stay,1,triangle,circle,0.8,left
203,122,10,circle,right,0.63169815999936,0,lose,win,stay,0,triangle,triangle,0.8,left
203,123,10,circle,left,0.592811360000269,0,lose,lose,stay,0,triangle,triangle,0.8,right
203,124,10,triangle,right,0.456647659999362,1,win,lose,shift,0,triangle,triangle,0.8,right
203,125,10,triangle,right,0.356607360000453,1,win,win,stay,0,triangle,triangle,0.8,right
203,126,10,triangle,left,0.761559159999706,1,win,win,stay,0,triangle,triangle,0.8,left
203,127,10,triangle,right,0.411554960001013,1,win,win,stay,0,triangle,triangle,0.8,right
203,128,10,triangle,right,0.661647859999903,1,win,win,stay,0,triangle,triangle,0.8,right
203,129,10,circle,right,0.523899060000076,0,win,win,shift,0,triangle,circle,0.8,left
203,130,10,circle,right,0.544064260000596,0,win,win,stay,0,triangle,circle,0.8,left
203,131,10,circle,right,0.581764159999693,0,lose,win,stay,0,triangle,triangle,0.8,left
203,132,10,triangle,right,0.467990060000375,1,win,lose,shift,0,triangle,triangle,0.8,right
203,133,10,triangle,left,0.467599060000794,1,win,win,stay,0,triangle,triangle,0.8,left
203,134,11,triangle,left,0.417929860001095,0,win,win,stay,1,circle,triangle,0.5,left
203,135,11,triangle,right,0.467602360000456,0,win,win,stay,0,circle,triangle,0.5,right
203,136,11,circle,right,1.54299876000005,1,win,win,shift,0,circle,circle,0.5,left
203,137,11,circle,right,0.517790860000787,1,lose,win,stay,0,circle,triangle,0.5,left
203,138,11,triangle,right,1.70704026000112,0,lose,lose,shift,0,circle,circle,0.5,right
203,139,11,circle,right,0.336520660000133,1,win,lose,shift,0,circle,circle,0.5,left
203,140,11,circle,right,0.392853860000287,1,lose,win,stay,0,circle,triangle,0.5,left
203,141,11,circle,left,0.381737260000591,1,win,lose,stay,0,circle,circle,0.5,right
203,142,11,circle,left,0.581514460001017,1,win,win,stay,0,circle,circle,0.5,right
203,143,11,circle,right,0.322697859999607,1,lose,win,stay,0,circle,triangle,0.5,left
203,144,12,triangle,left,0.631794660000196,1,lose,lose,shift,1,triangle,circle,0.8,left
203,145,12,circle,left,0.586700060000112,0,lose,lose,shift,0,triangle,triangle,0.8,right
203,146,12,triangle,right,0.281675160000304,1,win,lose,shift,0,triangle,triangle,0.8,right
203,147,12,triangle,right,0.682676760000504,1,win,win,stay,0,triangle,triangle,0.8,right
203,148,12,circle,right,0.66142396000123,0,lose,win,shift,0,triangle,triangle,0.8,left
203,149,12,triangle,right,0.40661136000017,1,win,lose,shift,0,triangle,triangle,0.8,right
203,150,12,triangle,right,1.2931356600011,1,win,win,stay,0,triangle,triangle,0.8,right
203,151,12,triangle,left,1.39362666000034,1,win,win,stay,0,triangle,triangle,0.8,left
203,152,12,triangle,right,1.28176746000008,1,lose,win,stay,0,triangle,circle,0.8,right
203,153,12,triangle,left,0.556659060001039,1,win,lose,stay,0,triangle,triangle,0.8,left
203,154,13,triangle,left,1.21764606000124,0,lose,win,stay,1,circle,circle,0.19999999999999996,left
203,155,13,circle,left,0.306781559999763,1,win,lose,shift,0,circle,circle,0.19999999999999996,right
203,156,13,circle,right,0.818025560000933,1,win,win,stay,0,circle,circle,0.19999999999999996,left
203,157,13,circle,left,0.981799360000878,1,win,win,stay,0,circle,circle,0.19999999999999996,right
203,158,13,circle,left,0.747233160000178,1,win,win,stay,0,circle,circle,0.19999999999999996,right
203,159,13,circle,left,0.731803960000434,1,win,win,stay,0,circle,circle,0.19999999999999996,right
203,160,13,circle,right,0.581820360000165,1,win,win,stay,0,circle,circle,0.19999999999999996,left
203,161,13,circle,left,0.317809560000569,1,win,win,stay,0,circle,circle,0.19999999999999996,right
203,162,13,circle,right,0.343046060000233,1,win,win,stay,0,circle,circle,0.19999999999999996,left
203,163,13,circle,right,0.4317023600006,1,lose,win,stay,0,circle,triangle,0.19999999999999996,left
203,164,14,triangle,right,0.556673660000342,1,lose,lose,shift,1,triangle,circle,0.5,right
203,165,14,circle,right,0.286643259999437,0,win,lose,shift,0,triangle,circle,0.5,left
203,166,14,circle,left,0.373391959999935,0,lose,win,stay,0,triangle,triangle,0.5,right
203,167,14,triangle,right,0.531711460001134,1,lose,lose,shift,0,triangle,circle,0.5,right
203,168,14,triangle,left,0.77252665999913,1,win,lose,stay,0,triangle,triangle,0.5,left
203,169,14,triangle,left,1.5818785600004,1,win,win,stay,0,triangle,triangle,0.5,left
203,170,14,triangle,right,1.1319550599992,1,lose,win,stay,0,triangle,circle,0.5,right
203,171,14,circle,right,0.668015360000027,0,lose,lose,shift,0,triangle,triangle,0.5,left
203,172,14,triangle,right,0.631555860000844,1,lose,lose,shift,0,triangle,circle,0.5,right
203,173,14,circle,right,0.336620760000187,0,lose,lose,shift,0,triangle,triangle,0.5,left
203,174,14,triangle,left,0.231665660000544,1,win,lose,shift,0,triangle,triangle,0.5,left
203,175,14,triangle,left,0.331822559999637,1,lose,win,stay,0,triangle,circle,0.5,left
203,176,15,triangle,left,1.09865695999906,0,lose,lose,stay,1,circle,circle,0.19999999999999996,left
203,177,15,circle,right,0.472001359999012,1,win,lose,shift,0,circle,circle,0.19999999999999996,left
203,178,15,circle,left,0.343530960000862,1,win,win,stay,0,circle,circle,0.19999999999999996,right
203,179,15,circle,right,0.91804226000022,1,win,win,stay,0,circle,circle,0.19999999999999996,left
203,180,15,circle,left,0.943117060000077,1,win,win,stay,0,circle,circle,0.19999999999999996,right
203,181,15,circle,right,1.48194745999899,1,win,win,stay,0,circle,circle,0.19999999999999996,left
203,182,15,circle,right,0.647626259999925,1,win,win,stay,0,circle,circle,0.19999999999999996,left
203,183,15,circle,left,0.656741059999149,1,win,win,stay,0,circle,circle,0.19999999999999996,right
203,184,15,circle,right,0.481802760000392,1,win,win,stay,0,circle,circle,0.19999999999999996,left
203,185,15,circle,left,0.361504959999365,1,win,win,stay,0,circle,circle,0.19999999999999996,right
203,186,16,circle,right,0.331673959999534,0,lose,win,stay,1,triangle,triangle,0.8,left
203,187,16,triangle,right,0.593662960000074,1,win,lose,shift,0,triangle,triangle,0.8,right
203,188,16,triangle,right,0.318090360000497,1,win,win,stay,0,triangle,triangle,0.8,right
203,189,16,triangle,right,0.356777859999056,1,win,win,stay,0,triangle,triangle,0.8,right
203,190,16,triangle,right,0.473570059999474,1,win,win,stay,0,triangle,triangle,0.8,right
203,191,16,triangle,left,1.50692015999994,1,win,win,stay,0,triangle,triangle,0.8,left
203,192,16,triangle,left,0.361471359999996,1,win,win,stay,0,triangle,triangle,0.8,left
203,193,16,triangle,left,0.428153460000431,1,lose,win,stay,0,triangle,circle,0.8,left
203,194,16,circle,right,0.331742360000135,0,lose,lose,shift,0,triangle,triangle,0.8,left
203,195,16,triangle,left,0.30668525999954,1,lose,lose,shift,0,triangle,circle,0.8,left
203,196,17,circle,left,0.611427859998912,1,win,lose,shift,1,circle,circle,0.5,right
203,197,17,circle,right,2.64326686000095,1,win,win,stay,0,circle,circle,0.5,left
203,198,17,circle,right,1.18179036000129,1,win,win,stay,0,circle,circle,0.5,left
203,199,17,circle,left,0.906845260000409,1,win,win,stay,0,circle,circle,0.5,right
203,200,17,circle,left,0.567913059999228,1,lose,win,stay,0,circle,triangle,0.5,right
203,201,17,circle,left,0.342745960001594,1,lose,lose,stay,0,circle,triangle,0.5,right
203,202,17,triangle,left,0.267840859999524,0,lose,lose,shift,0,circle,circle,0.5,left
203,203,17,circle,left,0.342688260000614,1,win,lose,shift,0,circle,circle,0.5,right
203,204,17,circle,left,0.381564360000084,1,win,win,stay,0,circle,circle,0.5,right
203,205,17,circle,right,0.436547160000373,1,win,win,stay,0,circle,circle,0.5,left
203,206,18,circle,left,0.411682360001578,0,win,win,stay,1,triangle,circle,0.8,right
203,207,18,circle,left,0.788181160000022,0,lose,win,stay,0,triangle,triangle,0.8,right
203,208,18,triangle,right,0.556810559999576,1,win,lose,shift,0,triangle,triangle,0.8,right
203,209,18,triangle,left,1.25683536000088,1,win,win,stay,0,triangle,triangle,0.8,left
203,210,18,circle,right,0.537459060000401,0,lose,win,shift,0,triangle,triangle,0.8,left
203,211,18,triangle,left,0.39248655999927,1,win,lose,shift,0,triangle,triangle,0.8,left
203,212,18,circle,left,0.53176515999985,0,lose,win,shift,0,triangle,triangle,0.8,right
203,213,18,circle,right,0.48180585999944,0,lose,lose,stay,0,triangle,triangle,0.8,left
203,214,18,circle,left,0.436550959997476,0,lose,lose,stay,0,triangle,triangle,0.8,right
203,215,18,circle,left,0.336527260000366,0,lose,lose,stay,0,triangle,triangle,0.8,right
203,216,18,triangle,right,0.511290859998553,1,win,lose,shift,0,triangle,triangle,0.8,right
203,217,18,triangle,left,0.99289805999797,1,win,win,stay,0,triangle,triangle,0.8,left
203,218,18,triangle,right,0.806870959999287,1,win,win,stay,0,triangle,triangle,0.8,right
203,219,18,triangle,left,0.597499260000404,1,win,win,stay,0,triangle,triangle,0.8,left
203,220,18,circle,left,0.917790859999513,0,lose,win,shift,0,triangle,triangle,0.8,right
203,221,18,circle,left,0.686532759998954,0,lose,lose,stay,0,triangle,triangle,0.8,right
203,222,19,triangle,right,0.497555959997044,0,lose,lose,shift,1,circle,circle,0.19999999999999996,right
203,223,19,triangle,left,0.442726859999311,0,lose,lose,stay,0,circle,circle,0.19999999999999996,left
203,224,19,triangle,left,0.506738559999576,0,lose,lose,stay,0,circle,circle,0.19999999999999996,left
203,225,19,circle,left,1.20675025999844,1,lose,lose,shift,0,circle,triangle,0.19999999999999996,right
203,226,19,circle,right,0.786650059999374,1,win,lose,stay,0,circle,circle,0.19999999999999996,left
203,227,19,circle,right,0.567909760000475,1,win,win,stay,0,circle,circle,0.19999999999999996,left
203,228,19,circle,right,0.742377260001376,1,win,win,stay,0,circle,circle,0.19999999999999996,left
203,229,19,circle,right,0.44293615999959,1,lose,win,stay,0,circle,triangle,0.19999999999999996,left
203,230,19,triangle,left,0.357500059999438,0,lose,lose,shift,0,circle,circle,0.19999999999999996,left
203,231,19,triangle,left,0.337634760000583,0,lose,lose,stay,0,circle,circle,0.19999999999999996,left
203,232,19,triangle,left,0.286598259999664,0,lose,lose,stay,0,circle,circle,0.19999999999999996,left
203,233,19,circle,left,0.486529159999918,1,lose,lose,shift,0,circle,triangle,0.19999999999999996,right
203,234,19,circle,left,0.306555860001026,1,lose,lose,stay,0,circle,triangle,0.19999999999999996,right
203,235,20,triangle,right,0.197357660001217,1,win,lose,shift,1,triangle,triangle,0.8,right
203,236,20,triangle,left,0.356623260000561,1,win,win,stay,0,triangle,triangle,0.8,left
203,237,20,triangle,right,0.486352759999136,1,win,win,stay,0,triangle,triangle,0.8,right
203,238,20,triangle,left,0.697389759998259,1,win,win,stay,0,triangle,triangle,0.8,left
203,239,20,triangle,right,0.406791659997907,1,win,win,stay,0,triangle,triangle,0.8,right
203,240,20,triangle,left,0.331670060000761,1,win,win,stay,0,triangle,triangle,0.8,left
203,241,20,circle,right,1.0116471600013,0,lose,win,shift,0,triangle,triangle,0.8,left
203,242,20,triangle,right,0.356652359998407,1,win,lose,shift,0,triangle,triangle,0.8,right
203,243,20,triangle,right,0.43193095999959,1,win,win,stay,0,triangle,triangle,0.8,right
203,244,20,triangle,right,0.41762245999962,1,win,win,stay,0,triangle,triangle,0.8,right
203,245,21,triangle,right,0.492816660000244,0,lose,win,stay,1,circle,circle,0.5,right
203,246,21,circle,right,0.467792160001409,1,lose,lose,shift,0,circle,triangle,0.5,left
203,247,21,triangle,right,0.467922259998886,0,lose,lose,shift,0,circle,circle,0.5,right
203,248,21,circle,left,0.631763259998479,1,win,lose,shift,0,circle,circle,0.5,right
203,249,21,circle,left,0.731708759998583,1,lose,win,stay,0,circle,triangle,0.5,right
203,250,21,triangle,left,0.667547859999104,0,win,lose,shift,0,circle,triangle,0.5,left
207,1,1,triangle,right,0.793646199999785,1,win,[],[],1,triangle,triangle,0.8,right
207,2,1,triangle,right,0.31740329999775,1,win,win,stay,0,triangle,triangle,0.8,right
207,3,1,triangle,right,0.267569000001458,1,win,win,stay,0,triangle,triangle,0.8,right
207,4,1,triangle,right,0.24308370000108,1,lose,win,stay,0,triangle,circle,0.8,right
207,5,1,triangle,right,0.273666799997955,1,lose,lose,stay,0,triangle,circle,0.8,right
207,6,1,circle,left,0.362019399999554,0,lose,lose,shift,0,triangle,triangle,0.8,right
207,7,1,circle,right,0.623152600001049,0,lose,lose,stay,0,triangle,triangle,0.8,left
207,8,1,triangle,right,0.357199699998091,1,win,lose,shift,0,triangle,triangle,0.8,right
207,9,1,triangle,left,0.418412999999418,1,lose,win,stay,0,triangle,circle,0.8,left
207,10,1,triangle,left,0.357087599999431,1,win,lose,stay,0,triangle,triangle,0.8,left
207,11,2,triangle,left,0.343307899998763,0,lose,win,stay,1,circle,circle,0.19999999999999996,left
207,12,2,triangle,right,0.407321299999239,0,lose,lose,stay,0,circle,circle,0.19999999999999996,right
207,13,2,circle,right,0.298246900001686,1,win,lose,shift,0,circle,circle,0.19999999999999996,left
207,14,2,circle,left,0.357155999998213,1,lose,win,stay,0,circle,triangle,0.19999999999999996,right
207,15,2,circle,right,0.243517599999905,1,win,lose,stay,0,circle,circle,0.19999999999999996,left
207,16,2,circle,right,0.307135499999276,1,win,win,stay,0,circle,circle,0.19999999999999996,left
207,17,2,circle,left,0.436976899998626,1,win,win,stay,0,circle,circle,0.19999999999999996,right
207,18,2,circle,left,0.37212609999915,1,lose,win,stay,0,circle,triangle,0.19999999999999996,right
207,19,2,triangle,right,0.582343800000672,0,lose,lose,shift,0,circle,circle,0.19999999999999996,right
207,20,2,triangle,right,0.262053099999321,0,lose,lose,stay,0,circle,circle,0.19999999999999996,right
207,21,2,circle,right,0.386834500000987,1,win,lose,shift,0,circle,circle,0.19999999999999996,left
207,22,3,circle,left,0.407296100000167,0,lose,win,stay,1,triangle,triangle,0.5,right
207,23,3,circle,right,0.357187699999486,0,lose,lose,stay,0,triangle,triangle,0.5,left
207,24,3,circle,left,0.362029399999301,0,lose,lose,stay,0,triangle,triangle,0.5,right
207,25,3,triangle,left,0.362102500001129,1,win,lose,shift,0,triangle,triangle,0.5,left
207,26,3,triangle,left,0.393944400000692,1,lose,win,stay,0,triangle,circle,0.5,left
207,27,3,triangle,right,0.343313100000159,1,lose,lose,stay,0,triangle,circle,0.5,right
207,28,3,circle,right,0.307236400001784,0,lose,lose,shift,0,triangle,triangle,0.5,left
207,29,3,circle,right,0.280285600001662,0,lose,lose,stay,0,triangle,triangle,0.5,left
207,30,3,circle,right,0.323285499998747,0,lose,lose,stay,0,triangle,triangle,0.5,left
207,31,3,triangle,left,0.318143200001941,1,win,lose,shift,0,triangle,triangle,0.5,left
207,32,3,triangle,left,0.337058599998272,1,win,win,stay,0,triangle,triangle,0.5,left
207,33,3,triangle,left,0.262054100001478,1,lose,win,stay,0,triangle,circle,0.5,left
207,34,3,triangle,right,0.392571299998963,1,win,lose,stay,0,triangle,triangle,0.5,right
207,35,4,triangle,left,0.407211699999607,0,lose,win,stay,1,circle,circle,0.19999999999999996,left
207,36,4,triangle,right,0.282276899999488,0,lose,lose,stay,0,circle,circle,0.19999999999999996,right
207,37,4,circle,left,0.362897900000462,1,lose,lose,shift,0,circle,triangle,0.19999999999999996,right
207,38,4,circle,left,0.336995200001184,1,win,lose,stay,0,circle,circle,0.19999999999999996,right
207,39,4,circle,left,0.293506000001798,1,win,win,stay,0,circle,circle,0.19999999999999996,right
207,40,4,circle,right,0.382249300000694,1,win,win,stay,0,circle,circle,0.19999999999999996,left
207,41,4,circle,right,0.33692389999851,1,win,win,stay,0,circle,circle,0.19999999999999996,left
207,42,4,circle,left,0.357023599999593,1,win,win,stay,0,circle,circle,0.19999999999999996,right
207,43,4,circle,left,0.298456299999089,1,win,win,stay,0,circle,circle,0.19999999999999996,right
207,44,4,circle,right,0.267956699999559,1,win,win,stay,0,circle,circle,0.19999999999999996,left
207,45,5,circle,left,0.356916199998523,0,lose,win,stay,1,triangle,triangle,0.8,right
207,46,5,circle,right,0.282256399999824,0,lose,lose,stay,0,triangle,triangle,0.8,left
207,47,5,triangle,right,0.748431899999559,1,win,lose,shift,0,triangle,triangle,0.8,right
207,48,5,triangle,left,0.393227800001114,1,lose,win,stay,0,triangle,circle,0.8,left
207,49,5,triangle,left,0.343425399998523,1,win,lose,stay,0,triangle,triangle,0.8,left
207,50,5,triangle,left,0.31816869999966,1,win,win,stay,0,triangle,triangle,0.8,left
207,51,5,triangle,right,0.368322199999966,1,lose,win,stay,0,triangle,circle,0.8,right
207,52,5,triangle,left,0.30735999999888,1,win,lose,stay,0,triangle,triangle,0.8,left
207,53,5,triangle,right,0.293470399998114,1,win,win,stay,0,triangle,triangle,0.8,right
207,54,5,triangle,left,0.382038000001558,1,win,win,stay,0,triangle,triangle,0.8,left
207,55,6,triangle,right,0.293134899999131,0,lose,win,stay,1,circle,circle,0.19999999999999996,right
207,56,6,triangle,left,0.367609100001573,0,lose,lose,stay,0,circle,circle,0.19999999999999996,left
207,57,6,circle,right,0.282298400001309,1,lose,lose,shift,0,circle,triangle,0.19999999999999996,left
207,58,6,circle,right,0.287054599997646,1,win,lose,stay,0,circle,circle,0.19999999999999996,left
207,59,6,circle,left,0.432243900000685,1,lose,win,stay,0,circle,triangle,0.19999999999999996,right
207,60,6,circle,right,0.257239200000186,1,lose,lose,stay,0,circle,triangle,0.19999999999999996,left
207,61,6,triangle,right,0.386730100000932,0,lose,lose,shift,0,circle,circle,0.19999999999999996,right
207,62,6,triangle,left,0.287029700000858,0,lose,lose,stay,0,circle,circle,0.19999999999999996,left
207,63,6,circle,right,0.272962299999563,1,win,lose,shift,0,circle,circle,0.19999999999999996,left
207,64,6,circle,left,0.419021400000929,1,lose,win,stay,0,circle,triangle,0.19999999999999996,right
207,65,6,circle,right,0.282102499999382,1,win,lose,stay,0,circle,circle,0.19999999999999996,left
207,66,7,circle,left,0.282129199998963,0,win,win,stay,1,triangle,circle,0.5,right
207,67,7,circle,left,0.362016800001584,0,lose,win,stay,0,triangle,triangle,0.5,right
207,68,7,circle,left,0.418003700002373,0,win,lose,stay,0,triangle,circle,0.5,right
207,69,7,circle,right,0.34259209999982,0,lose,win,stay,0,triangle,triangle,0.5,left
207,70,7,circle,left,0.257051099999444,0,win,lose,stay,0,triangle,circle,0.5,right
207,71,7,circle,left,0.357110599999942,0,win,win,stay,0,triangle,circle,0.5,right
207,72,7,circle,left,1.30726069999764,0,win,win,stay,0,triangle,circle,0.5,right
207,73,7,circle,right,0.549079200000051,0,win,win,stay,0,triangle,circle,0.5,left
207,74,7,circle,right,0.382011899997451,0,lose,win,stay,0,triangle,triangle,0.5,left
207,75,7,circle,left,0.682273599997643,0,lose,lose,stay,0,triangle,triangle,0.5,right
207,76,7,triangle,left,0.397913400000107,1,lose,lose,shift,0,triangle,circle,0.5,left
207,77,7,triangle,left,0.357072099999641,1,win,lose,stay,0,triangle,triangle,0.5,left
207,78,7,triangle,right,0.493033299999297,1,lose,win,stay,0,triangle,circle,0.5,right
207,79,7,triangle,right,0.407143299999007,1,win,lose,stay,0,triangle,triangle,0.5,right
207,80,7,triangle,left,0.407230799999525,1,win,win,stay,0,triangle,triangle,0.5,left
207,81,7,triangle,left,0.311831099998017,1,win,win,stay,0,triangle,triangle,0.5,left
207,82,8,triangle,left,0.31196749999981,1,win,win,stay,1,triangle,triangle,0.8,left
207,83,8,triangle,left,0.322905900000478,1,win,win,stay,0,triangle,triangle,0.8,left
207,84,8,triangle,left,0.243182899999738,1,win,win,stay,0,triangle,triangle,0.8,left
207,85,8,triangle,right,0.557252500000686,1,win,win,stay,0,triangle,triangle,0.8,right
207,86,8,triangle,right,0.386982800000624,1,win,win,stay,0,triangle,triangle,0.8,right
207,87,8,triangle,right,0.347805699999299,1,win,win,stay,0,triangle,triangle,0.8,right
207,88,8,triangle,right,0.293122300001414,1,win,win,stay,0,triangle,triangle,0.8,right
207,89,8,triangle,left,0.282106200000271,1,win,win,stay,0,triangle,triangle,0.8,left
207,90,8,triangle,right,0.286985100001402,1,win,win,stay,0,triangle,triangle,0.8,right
207,91,8,triangle,left,0.286949400002413,1,win,win,stay,0,triangle,triangle,0.8,left
207,92,9,triangle,right,0.29802170000039,0,lose,win,stay,1,circle,circle,0.19999999999999996,right
207,93,9,triangle,left,0.557257399999799,0,lose,lose,stay,0,circle,circle,0.19999999999999996,left
207,94,9,circle,right,0.287001900000178,1,win,lose,shift,0,circle,circle,0.19999999999999996,left
207,95,9,circle,right,0.3432384000007,1,win,win,stay,0,circle,circle,0.19999999999999996,left
207,96,9,circle,right,0.282238599998891,1,win,win,stay,0,circle,circle,0.19999999999999996,left
207,97,9,circle,left,0.448313799999596,1,win,win,stay,0,circle,circle,0.19999999999999996,right
207,98,9,circle,right,0.243120700000873,1,win,win,stay,0,circle,circle,0.19999999999999996,left
207,99,9,circle,right,0.368343099999038,1,win,win,stay,0,circle,circle,0.19999999999999996,left
207,100,9,circle,right,0.242427399998633,1,lose,win,stay,0,circle,triangle,0.19999999999999996,left
207,101,9,circle,right,0.282237500001429,1,win,lose,stay,0,circle,circle,0.19999999999999996,left
207,102,10,circle,right,0.307298800000353,0,lose,win,stay,1,triangle,triangle,0.8,left
207,103,10,circle,right,0.307142999999996,0,lose,lose,stay,0,triangle,triangle,0.8,left
207,104,10,triangle,left,0.322987499999726,1,lose,lose,shift,0,triangle,circle,0.8,left
207,105,10,triangle,left,0.282212899999649,1,win,lose,stay,0,triangle,triangle,0.8,left
207,106,10,triangle,right,0.418163199999981,1,win,win,stay,0,triangle,triangle,0.8,right
207,107,10,triangle,right,0.28304290000051,1,win,win,stay,0,triangle,triangle,0.8,right
207,108,10,triangle,right,0.272839200000817,1,win,win,stay,0,triangle,triangle,0.8,right
207,109,10,triangle,right,0.268225100000564,1,win,win,stay,0,triangle,triangle,0.8,right
207,110,10,triangle,left,0.382211000000098,1,win,win,stay,0,triangle,triangle,0.8,left
207,111,10,triangle,left,0.262054199998602,1,win,win,stay,0,triangle,triangle,0.8,left
207,112,11,triangle,right,0.324439899999561,0,lose,win,stay,1,circle,circle,0.5,right
207,113,11,triangle,right,0.358412500001577,0,lose,lose,stay,0,circle,circle,0.5,right
207,114,11,triangle,right,0.236989200000608,0,win,lose,stay,0,circle,triangle,0.5,right
207,115,11,triangle,right,0.257121700000425,0,lose,win,stay,0,circle,circle,0.5,right
207,116,11,triangle,left,0.357060700000147,0,win,lose,stay,0,circle,triangle,0.5,left
207,117,11,triangle,right,0.268143900000723,0,win,win,stay,0,circle,triangle,0.5,right
207,118,11,triangle,right,0.318345699999554,0,win,win,stay,0,circle,triangle,0.5,right
207,119,11,triangle,right,0.268930699998236,0,win,win,stay,0,circle,triangle,0.5,right
207,120,11,triangle,right,0.282226100000116,0,lose,win,stay,0,circle,circle,0.5,right
207,121,11,triangle,right,0.282179399999222,0,lose,lose,stay,0,circle,circle,0.5,right
207,122,11,circle,left,0.386914700000489,1,win,lose,shift,0,circle,circle,0.5,right
207,123,11,circle,left,0.382141199999751,1,lose,win,stay,0,circle,triangle,0.5,right
207,124,11,circle,right,0.393135799999072,1,win,lose,stay,0,circle,circle,0.5,left
207,125,11,circle,left,0.618019900000945,1,win,win,stay,0,circle,circle,0.5,right
207,126,11,circle,left,0.407185500002015,1,win,win,stay,0,circle,circle,0.5,right
207,127,11,circle,left,0.347961900000882,1,lose,win,stay,0,circle,triangle,0.5,right
207,128,12,circle,right,0.567715200000748,0,lose,lose,stay,1,triangle,triangle,0.8,left
207,129,12,triangle,right,0.407188600000154,1,win,lose,shift,0,triangle,triangle,0.8,right
207,130,12,triangle,right,0.38202850000016,1,win,win,stay,0,triangle,triangle,0.8,right
207,131,12,triangle,left,0.34801730000072,1,win,win,stay,0,triangle,triangle,0.8,left
207,132,12,triangle,left,0.332220700000107,1,win,win,stay,0,triangle,triangle,0.8,left
207,133,12,triangle,right,0.386947500001042,1,win,win,stay,0,triangle,triangle,0.8,right
207,134,12,triangle,right,0.311973800000487,1,lose,win,stay,0,triangle,circle,0.8,right
207,135,12,triangle,right,0.407164000000193,1,win,lose,stay,0,triangle,triangle,0.8,right
207,136,12,triangle,right,0.368380399999296,1,win,win,stay,0,triangle,triangle,0.8,right
207,137,12,triangle,left,0.368113099999391,1,win,win,stay,0,triangle,triangle,0.8,left
207,138,13,triangle,right,0.293270499998471,0,lose,win,stay,1,circle,circle,0.19999999999999996,right
207,139,13,triangle,right,0.75737399999889,0,lose,lose,stay,0,circle,circle,0.19999999999999996,right
207,140,13,circle,left,0.35533519999808,1,win,lose,shift,0,circle,circle,0.19999999999999996,right
207,141,13,circle,right,0.382110900001862,1,win,win,stay,0,circle,circle,0.19999999999999996,left
207,142,13,circle,left,0.486994800001412,1,win,win,stay,0,circle,circle,0.19999999999999996,right
207,143,13,circle,left,0.387102600001526,1,win,win,stay,0,circle,circle,0.19999999999999996,right
207,144,13,circle,right,0.362104599998929,1,win,win,stay,0,circle,circle,0.19999999999999996,left
207,145,13,circle,left,0.362175300000672,1,lose,win,stay,0,circle,triangle,0.19999999999999996,right
207,146,13,circle,left,0.418344000001525,1,win,lose,stay,0,circle,circle,0.19999999999999996,right
207,147,13,circle,right,0.41816050000125,1,lose,win,stay,0,circle,triangle,0.19999999999999996,left
207,148,14,circle,left,0.342658100000335,0,lose,lose,stay,1,triangle,triangle,0.5,right
207,149,14,triangle,left,0.368220600001223,1,lose,lose,shift,0,triangle,circle,0.5,left
207,150,14,triangle,right,0.343072899999243,1,lose,lose,stay,0,triangle,circle,0.5,right
207,151,14,circle,right,0.33211239999946,0,lose,lose,shift,0,triangle,triangle,0.5,left
207,152,14,triangle,left,0.56207859999995,1,win,lose,shift,0,triangle,triangle,0.5,left
207,153,14,triangle,left,0.317923499998869,1,lose,win,stay,0,triangle,circle,0.5,left
207,154,14,triangle,left,0.307324699999299,1,lose,lose,stay,0,triangle,circle,0.5,left
207,155,14,circle,right,0.236883900000976,0,lose,lose,shift,0,triangle,triangle,0.5,left
207,156,14,circle,left,0.293877499998416,0,lose,lose,stay,0,triangle,triangle,0.5,right
207,157,14,circle,left,0.343899699999383,0,win,lose,stay,0,triangle,circle,0.5,right
207,158,14,circle,left,0.3572120000008,0,lose,win,stay,0,triangle,triangle,0.5,right
207,159,14,circle,left,0.306982500000231,0,lose,lose,stay,0,triangle,triangle,0.5,right
207,160,14,triangle,left,0.298438300000271,1,win,lose,shift,0,triangle,triangle,0.5,left
207,161,14,triangle,right,0.382015600000159,1,win,win,stay,0,triangle,triangle,0.5,right
207,162,14,triangle,right,0.323072400002275,1,win,win,stay,0,triangle,triangle,0.5,right
207,163,14,triangle,right,0.343008099998769,1,win,win,stay,0,triangle,triangle,0.5,right
207,164,15,triangle,right,0.307310600001074,0,lose,win,stay,1,circle,circle,0.19999999999999996,right
207,165,15,triangle,right,0.344170899999881,0,lose,lose,stay,0,circle,circle,0.19999999999999996,right
207,166,15,triangle,right,0.282040699998106,0,lose,lose,stay,0,circle,circle,0.19999999999999996,right
207,167,15,circle,left,0.287062999997943,1,win,lose,shift,0,circle,circle,0.19999999999999996,right
207,168,15,circle,left,0.382304900000236,1,win,win,stay,0,circle,circle,0.19999999999999996,right
207,169,15,circle,left,0.311978700001418,1,win,win,stay,0,circle,circle,0.19999999999999996,right
207,170,15,circle,left,0.273103900000933,1,win,win,stay,0,circle,circle,0.19999999999999996,right
207,171,15,circle,left,0.307209900000089,1,lose,win,stay,0,circle,triangle,0.19999999999999996,right
207,172,15,circle,right,0.506921200001671,1,lose,lose,stay,0,circle,triangle,0.19999999999999996,left
207,173,15,triangle,right,0.322608699998455,0,lose,lose,shift,0,circle,circle,0.19999999999999996,right
207,174,15,triangle,right,0.268232000000353,0,lose,lose,stay,0,circle,circle,0.19999999999999996,right
207,175,15,triangle,left,0.757981200000359,0,lose,lose,stay,0,circle,circle,0.19999999999999996,left
207,176,15,circle,left,0.512109999999666,1,lose,lose,shift,0,circle,triangle,0.19999999999999996,right
207,177,16,circle,right,0.322547500001747,0,lose,lose,stay,1,triangle,triangle,0.8,left
207,178,16,circle,left,0.382115700000213,0,lose,lose,stay,0,triangle,triangle,0.8,right
207,179,16,triangle,right,0.312131900000168,1,win,lose,shift,0,triangle,triangle,0.8,right
207,180,16,triangle,left,0.49349120000079,1,win,win,stay,0,triangle,triangle,0.8,left
207,181,16,triangle,right,0.368125599999985,1,win,win,stay,0,triangle,triangle,0.8,right
207,182,16,triangle,right,0.29319790000045,1,win,win,stay,0,triangle,triangle,0.8,right
207,183,16,triangle,right,0.307972299999165,1,win,win,stay,0,triangle,triangle,0.8,right
207,184,16,triangle,right,0.316451599999709,1,lose,win,stay,0,triangle,circle,0.8,right
207,185,16,triangle,left,0.325592199998937,1,lose,lose,stay,0,triangle,circle,0.8,left
207,186,16,triangle,right,0.287034199998743,1,win,lose,stay,0,triangle,triangle,0.8,right
207,187,17,triangle,left,0.307274599999801,0,win,win,stay,1,circle,triangle,0.5,left
207,188,17,triangle,right,0.262028699999064,0,win,win,stay,0,circle,triangle,0.5,right
207,189,17,triangle,right,0.372777900000074,0,win,win,stay,0,circle,triangle,0.5,right
207,190,17,triangle,left,0.368222799999785,0,lose,win,stay,0,circle,circle,0.5,left
207,191,17,triangle,left,0.532262699998682,0,lose,lose,stay,0,circle,circle,0.5,left
207,192,17,triangle,right,0.337065399999119,0,lose,lose,stay,0,circle,circle,0.5,right
207,193,17,triangle,right,0.437031399998887,0,lose,lose,stay,0,circle,circle,0.5,right
207,194,17,circle,right,0.312014399998588,1,lose,lose,shift,0,circle,triangle,0.5,left
207,195,17,circle,right,0.311742500001856,1,win,lose,stay,0,circle,circle,0.5,left
207,196,17,circle,right,0.357385600000271,1,win,win,stay,0,circle,circle,0.5,left
207,197,17,circle,right,0.311988999997993,1,win,win,stay,0,circle,circle,0.5,left
207,198,17,circle,right,0.311893899997813,1,lose,win,stay,0,circle,triangle,0.5,left
207,199,17,circle,right,0.357232800000929,1,lose,lose,stay,0,circle,triangle,0.5,left
207,200,17,triangle,right,0.336856800000533,0,win,lose,shift,0,circle,triangle,0.5,right
207,201,17,triangle,right,0.332211900000402,0,lose,win,stay,0,circle,circle,0.5,right
207,202,17,triangle,right,0.368320099998527,0,win,lose,stay,0,circle,triangle,0.5,right
207,203,18,triangle,left,0.418370100000175,1,win,win,stay,1,triangle,triangle,0.8,left
207,204,18,triangle,right,0.307063399999606,1,lose,win,stay,0,triangle,circle,0.8,right
207,205,18,triangle,left,0.48215589999927,1,win,lose,stay,0,triangle,triangle,0.8,left
207,206,18,triangle,left,0.367996200000562,1,lose,win,stay,0,triangle,circle,0.8,left
207,207,18,triangle,right,0.357957100000931,1,win,lose,stay,0,triangle,triangle,0.8,right
207,208,18,triangle,right,0.315021499998693,1,win,win,stay,0,triangle,triangle,0.8,right
207,209,18,triangle,right,0.322893100001238,1,win,win,stay,0,triangle,triangle,0.8,right
207,210,18,triangle,left,0.43229159999828,1,win,win,stay,0,triangle,triangle,0.8,left
207,211,18,triangle,left,0.362035199999809,1,win,win,stay,0,triangle,triangle,0.8,left
207,212,18,triangle,left,0.362025200001881,1,win,win,stay,0,triangle,triangle,0.8,left
207,213,19,triangle,right,0.337104400001408,0,win,win,stay,1,circle,triangle,0.19999999999999996,right
207,214,19,triangle,left,0.273129699999117,0,win,win,stay,0,circle,triangle,0.19999999999999996,left
207,215,19,triangle,right,0.369334600000002,0,lose,win,stay,0,circle,circle,0.19999999999999996,right
207,216,19,triangle,left,0.282065900000816,0,lose,lose,stay,0,circle,circle,0.19999999999999996,left
207,217,19,circle,right,0.347760999999082,1,win,lose,shift,0,circle,circle,0.19999999999999996,left
207,218,19,circle,right,0.382213999999294,1,win,win,stay,0,circle,circle,0.19999999999999996,left
207,219,19,circle,left,0.447406400000546,1,win,win,stay,0,circle,circle,0.19999999999999996,right
207,220,19,circle,left,0.393874600000345,1,win,win,stay,0,circle,circle,0.19999999999999996,right
207,221,19,circle,right,0.543353999999454,1,win,win,stay,0,circle,circle,0.19999999999999996,left
207,222,19,circle,right,0.432274500000858,1,win,win,stay,0,circle,circle,0.19999999999999996,left
207,223,19,circle,left,0.636980100000073,1,win,win,stay,0,circle,circle,0.19999999999999996,right
207,224,20,circle,left,0.430224300000191,0,lose,win,stay,1,triangle,triangle,0.8,right
207,225,20,circle,left,0.54300350000085,0,lose,lose,stay,0,triangle,triangle,0.8,right
207,226,20,triangle,left,0.707244400000491,1,lose,lose,shift,0,triangle,circle,0.8,left
207,227,20,triangle,left,0.3618882999981,1,win,lose,stay,0,triangle,triangle,0.8,left
207,228,20,triangle,left,0.567658800000572,1,win,win,stay,0,triangle,triangle,0.8,left
207,229,20,triangle,left,0.318096999999398,1,win,win,stay,0,triangle,triangle,0.8,left
207,230,20,triangle,right,0.407106900000144,1,lose,win,stay,0,triangle,circle,0.8,right
207,231,20,triangle,left,0.457192199999554,1,win,lose,stay,0,triangle,triangle,0.8,left
207,232,20,triangle,right,0.432250599998952,1,win,win,stay,0,triangle,triangle,0.8,right
207,233,20,triangle,left,0.411893899999995,1,win,win,stay,0,triangle,triangle,0.8,left
207,234,21,triangle,right,0.332024900000761,0,win,win,stay,1,circle,triangle,0.5,right
207,235,21,triangle,left,0.337004900000466,0,lose,win,stay,0,circle,circle,0.5,left
207,236,21,triangle,left,0.318040599999222,0,lose,lose,stay,0,circle,circle,0.5,left
207,237,21,circle,left,0.368014600000606,1,win,lose,shift,0,circle,circle,0.5,right
207,238,21,circle,right,0.357206900000165,1,lose,win,stay,0,circle,triangle,0.5,left
207,239,21,circle,left,0.318004299999302,1,win,lose,stay,0,circle,circle,0.5,right
207,240,21,circle,right,0.59343810000064,1,win,win,stay,0,circle,circle,0.5,left
207,241,21,triangle,left,0.318027000001166,0,lose,win,shift,0,circle,circle,0.5,left
207,242,21,circle,right,0.357003600000098,1,lose,lose,shift,0,circle,triangle,0.5,left
207,243,21,circle,right,0.311884600001576,1,win,lose,stay,0,circle,circle,0.5,left
207,244,21,circle,left,0.443134099998133,1,lose,win,stay,0,circle,triangle,0.5,right
207,245,22,circle,right,0.369195500001297,1,win,lose,stay,1,circle,circle,0.19999999999999996,left
207,246,22,circle,right,0.744331899999452,1,win,win,stay,0,circle,circle,0.19999999999999996,left
207,247,22,circle,left,0.392963300000702,1,lose,win,stay,0,circle,triangle,0.19999999999999996,right
207,248,22,circle,right,0.398594599999342,1,win,lose,stay,0,circle,circle,0.19999999999999996,left
207,249,22,circle,right,0.343053300000975,1,lose,win,stay,0,circle,triangle,0.19999999999999996,left
207,250,22,circle,left,0.281928100001096,1,win,lose,stay,0,circle,circle,0.19999999999999996,right
210,1,1,triangle,right,1.22919510000247,0,lose,[],[],1,circle,circle,0.2,right
210,2,1,circle,right,1.31794030000128,1,win,lose,shift,0,circle,circle,0.2,left
210,3,1,circle,left,0.406816699998672,1,win,win,stay,0,circle,circle,0.2,right
210,4,1,circle,right,0.361579800000982,1,win,win,stay,0,circle,circle,0.2,left
210,5,1,circle,right,0.472557400002188,1,win,win,stay,0,circle,circle,0.2,left
210,6,1,circle,right,0.342739100002291,1,win,win,stay,0,circle,circle,0.2,left
210,7,1,circle,left,0.356762700002946,1,win,win,stay,0,circle,circle,0.2,right
210,8,1,circle,right,0.336636900001395,1,win,win,stay,0,circle,circle,0.2,left
210,9,1,circle,left,0.372117200000503,1,lose,win,stay,0,circle,triangle,0.2,right
210,10,1,triangle,right,0.442613400000482,0,lose,lose,shift,0,circle,circle,0.2,right
210,11,2,circle,right,0.406626300002245,0,lose,lose,shift,1,triangle,triangle,0.8,left
210,12,2,triangle,right,0.697328000000198,1,win,lose,shift,0,triangle,triangle,0.8,right
210,13,2,triangle,left,0.742952000000514,1,win,win,stay,0,triangle,triangle,0.8,left
210,14,2,triangle,left,0.506867500002045,1,win,win,stay,0,triangle,triangle,0.8,left
210,15,2,triangle,right,0.412547500000073,1,win,win,stay,0,triangle,triangle,0.8,right
210,16,2,triangle,left,0.336699700001191,1,win,win,stay,0,triangle,triangle,0.8,left
210,17,2,triangle,left,0.422835400000622,1,win,win,stay,0,triangle,triangle,0.8,left
210,18,2,triangle,left,0.37356489999911,1,win,win,stay,0,triangle,triangle,0.8,left
210,19,2,triangle,left,0.397606000000451,1,win,win,stay,0,triangle,triangle,0.8,left
210,20,2,triangle,left,0.357604799999535,1,win,win,stay,0,triangle,triangle,0.8,left
210,21,3,triangle,left,0.336484999999811,0,win,win,stay,1,circle,triangle,0.5,left
210,22,3,triangle,right,0.386532700002135,0,lose,win,stay,0,circle,circle,0.5,right
210,23,3,circle,left,0.281506700001046,1,win,lose,shift,0,circle,circle,0.5,right
210,24,3,circle,right,0.367669099998238,1,lose,win,stay,0,circle,triangle,0.5,left
210,25,3,circle,right,0.61779480000223,1,win,lose,stay,0,circle,circle,0.5,left
210,26,3,circle,right,0.29292489999898,1,lose,win,stay,0,circle,triangle,0.5,left
210,27,3,triangle,right,0.692783500002406,0,win,lose,shift,0,circle,triangle,0.5,right
210,28,3,triangle,right,0.367878700000801,0,win,win,stay,0,circle,triangle,0.5,right
210,29,3,triangle,left,0.567633599999681,0,lose,win,stay,0,circle,circle,0.5,left
210,30,3,triangle,right,0.381647300000623,0,win,lose,stay,0,circle,triangle,0.5,right
210,31,3,triangle,right,0.431819800001904,0,lose,win,stay,0,circle,circle,0.5,right
210,32,3,circle,right,0.506923200002348,1,lose,lose,shift,0,circle,triangle,0.5,left
210,33,3,triangle,right,0.636573200001294,0,lose,lose,shift,0,circle,circle,0.5,right
210,34,3,circle,right,0.392107300000134,1,win,lose,shift,0,circle,circle,0.5,left
210,35,3,circle,right,0.407475700001669,1,lose,win,stay,0,circle,triangle,0.5,left
210,36,3,circle,left,1.94327560000056,1,win,lose,stay,0,circle,circle,0.5,right
210,37,4,circle,right,0.817843000000721,0,win,win,stay,1,triangle,circle,0.8,left
210,38,4,circle,right,0.368117500001972,0,lose,win,stay,0,triangle,triangle,0.8,left
210,39,4,circle,left,0.506682600002023,0,win,lose,stay,0,triangle,circle,0.8,right
210,40,4,circle,left,0.393481699999029,0,lose,win,stay,0,triangle,triangle,0.8,right
210,41,4,circle,left,0.481689200001711,0,win,lose,stay,0,triangle,circle,0.8,right
210,42,4,circle,right,0.54302330000246,0,lose,win,stay,0,triangle,triangle,0.8,left
210,43,4,triangle,left,0.46773260000009,1,win,lose,shift,0,triangle,triangle,0.8,left
210,44,4,triangle,left,0.306613300001118,1,win,win,stay,0,triangle,triangle,0.8,left
210,45,4,triangle,left,0.411548300000504,1,win,win,stay,0,triangle,triangle,0.8,left
210,46,4,triangle,right,0.597438300001158,1,win,win,stay,0,triangle,triangle,0.8,right
210,47,4,triangle,left,0.38174490000165,1,lose,win,stay,0,triangle,circle,0.8,left
210,48,4,circle,left,0.368248399998265,0,win,lose,shift,0,triangle,circle,0.8,right
210,49,4,circle,right,0.281593300001987,0,lose,win,stay,0,triangle,triangle,0.8,left
210,50,4,circle,left,0.881816300001447,0,lose,lose,stay,0,triangle,triangle,0.8,right
210,51,4,triangle,right,0.362652300002082,1,win,lose,shift,0,triangle,triangle,0.8,right
210,52,4,triangle,right,0.481612300000052,1,win,win,stay,0,triangle,triangle,0.8,right
210,53,5,triangle,right,0.436765600001308,0,lose,win,stay,1,circle,circle,0.2,right
210,54,5,triangle,left,0.392969500000618,0,lose,lose,stay,0,circle,circle,0.2,left
210,55,5,circle,right,0.356766200000493,1,win,lose,shift,0,circle,circle,0.2,left
210,56,5,circle,right,0.493207200001052,1,win,win,stay,0,circle,circle,0.2,left
210,57,5,circle,left,0.467835299999933,1,lose,win,stay,0,circle,triangle,0.2,right
210,58,5,triangle,left,0.45669960000123,0,lose,lose,shift,0,circle,circle,0.2,left
210,59,5,circle,right,1.2118348999993,1,win,lose,shift,0,circle,circle,0.2,left
210,60,5,circle,right,0.331607399999484,1,win,win,stay,0,circle,circle,0.2,left
210,61,5,circle,right,0.486579000000347,1,win,win,stay,0,circle,circle,0.2,left
210,62,5,circle,left,0.472565100000793,1,win,win,stay,0,circle,circle,0.2,right
210,63,6,circle,right,0.506766700000298,0,lose,win,stay,1,triangle,triangle,0.8,left
210,64,6,circle,left,0.608092100002978,0,lose,lose,stay,0,triangle,triangle,0.8,right
210,65,6,triangle,right,0.311520200000814,1,win,lose,shift,0,triangle,triangle,0.8,right
210,66,6,triangle,right,0.331517399999939,1,lose,win,stay,0,triangle,circle,0.8,right
210,67,6,triangle,right,0.292261000000508,1,lose,lose,stay,0,triangle,circle,0.8,right
210,68,6,circle,left,0.29253460000109,0,win,lose,shift,0,triangle,circle,0.8,right
210,69,6,circle,right,0.531722800002171,0,lose,win,stay,0,triangle,triangle,0.8,left
210,70,6,circle,right,0.356856500000504,0,lose,lose,stay,0,triangle,triangle,0.8,left
210,71,6,triangle,right,0.547516399999949,1,win,lose,shift,0,triangle,triangle,0.8,right
210,72,6,triangle,left,0.356612100002167,1,win,win,stay,0,triangle,triangle,0.8,left
210,73,6,triangle,left,0.378294000000096,1,win,win,stay,0,triangle,triangle,0.8,left
210,74,6,triangle,left,0.472383600001194,1,win,win,stay,0,triangle,triangle,0.8,left
210,75,7,triangle,right,0.356478400000924,0,lose,win,stay,1,circle,circle,0.5,right
210,76,7,circle,left,0.357613900001525,1,lose,lose,shift,0,circle,triangle,0.5,right
210,77,7,triangle,right,0.798285500000929,0,win,lose,shift,0,circle,triangle,0.5,right
210,78,7,triangle,right,0.442717600002652,0,win,win,stay,0,circle,triangle,0.5,right
210,79,7,triangle,left,0.592906600002607,0,lose,win,stay,0,circle,circle,0.5,left
210,80,7,circle,right,0.492850200000248,1,win,lose,shift,0,circle,circle,0.5,left
210,81,7,circle,left,0.642695400001685,1,lose,win,stay,0,circle,triangle,0.5,right
210,82,7,triangle,left,0.442651300001671,0,win,lose,shift,0,circle,triangle,0.5,left
210,83,7,triangle,right,0.493376000000353,0,win,win,stay,0,circle,triangle,0.5,right
210,84,7,triangle,left,0.506653799999185,0,lose,win,stay,0,circle,circle,0.5,left
210,85,7,circle,right,0.743467500002225,1,lose,lose,shift,0,circle,triangle,0.5,left
210,86,7,triangle,left,0.29299390000233,0,lose,lose,shift,0,circle,circle,0.5,left
210,87,7,circle,left,1.0180049999999,1,lose,lose,shift,0,circle,triangle,0.5,right
210,88,7,triangle,right,0.331193100000746,0,win,lose,shift,0,circle,triangle,0.5,right
210,89,7,triangle,left,0.581948300001386,0,lose,win,stay,0,circle,circle,0.5,left
210,90,7,triangle,left,0.367801699998381,0,lose,lose,stay,0,circle,circle,0.5,left
210,91,8,circle,right,0.542712100001154,1,win,lose,shift,1,circle,circle,0.2,left
210,92,8,circle,right,0.331693300000552,1,win,win,stay,0,circle,circle,0.2,left
210,93,8,circle,right,0.486445200000162,1,win,win,stay,0,circle,circle,0.2,left
210,94,8,circle,right,0.381673600002614,1,lose,win,stay,0,circle,triangle,0.2,left
210,95,8,triangle,right,0.958433000001605,0,lose,lose,shift,0,circle,circle,0.2,right
210,96,8,circle,left,0.386654399999316,1,win,lose,shift,0,circle,circle,0.2,right
210,97,8,circle,left,0.55674480000016,1,win,win,stay,0,circle,circle,0.2,right
210,98,8,circle,left,0.742906600000424,1,win,win,stay,0,circle,circle,0.2,right
210,99,8,circle,left,0.46774760000153,1,win,win,stay,0,circle,circle,0.2,right
210,100,8,circle,left,0.531831000002057,1,lose,win,stay,0,circle,triangle,0.2,right
210,101,9,circle,left,0.442830200001481,0,lose,lose,stay,1,triangle,triangle,0.8,right
210,102,9,triangle,left,0.817276300000231,1,win,lose,shift,0,triangle,triangle,0.8,left
210,103,9,triangle,right,0.557540400002836,1,lose,win,stay,0,triangle,circle,0.8,right
210,104,9,circle,left,0.356671399998959,0,lose,lose,shift,0,triangle,triangle,0.8,right
210,105,9,triangle,right,0.911499800000456,1,win,lose,shift,0,triangle,triangle,0.8,right
210,106,9,triangle,right,0.481767800001762,1,lose,win,stay,0,triangle,circle,0.8,right
210,107,9,triangle,left,0.442732700001216,1,win,lose,stay,0,triangle,triangle,0.8,left
210,108,9,triangle,right,0.506658500002231,1,lose,win,stay,0,triangle,circle,0.8,right
210,109,9,triangle,left,0.642564000003404,1,win,lose,stay,0,triangle,triangle,0.8,left
210,110,9,triangle,left,0.556793100000505,1,win,win,stay,0,triangle,triangle,0.8,left
210,111,10,triangle,left,0.511384000001271,0,lose,win,stay,1,circle,circle,0.2,left
210,112,10,triangle,right,0.642636399999901,0,lose,lose,stay,0,circle,circle,0.2,right
210,113,10,circle,left,0.40671900000234,1,lose,lose,shift,0,circle,triangle,0.2,right
210,114,10,triangle,right,0.547072100001969,0,lose,lose,shift,0,circle,circle,0.2,right
210,115,10,circle,right,0.457687200001601,1,win,lose,shift,0,circle,circle,0.2,left
210,116,10,circle,left,0.467497300000105,1,lose,win,stay,0,circle,triangle,0.2,right
210,117,10,circle,left,0.531592900002579,1,win,lose,stay,0,circle,circle,0.2,right
210,118,10,circle,left,0.53169870000238,1,lose,win,stay,0,circle,triangle,0.2,right
210,119,10,circle,right,0.456793500001368,1,win,lose,stay,0,circle,circle,0.2,left
210,120,10,circle,left,0.506860600000437,1,lose,win,stay,0,circle,triangle,0.2,right
210,121,11,circle,left,0.406749600000694,0,lose,lose,stay,1,triangle,triangle,0.5,right
210,122,11,triangle,right,0.413113800001156,1,lose,lose,shift,0,triangle,circle,0.5,right
210,123,11,circle,right,1.13665509999919,0,lose,lose,shift,0,triangle,triangle,0.5,left
210,124,11,triangle,left,0.372614699999758,1,lose,lose,shift,0,triangle,circle,0.5,left
210,125,11,circle,right,0.556867399998737,0,lose,lose,shift,0,triangle,triangle,0.5,left
210,126,11,circle,right,0.286770600001546,0,win,lose,stay,0,triangle,circle,0.5,left
210,127,11,circle,left,0.4929342000014,0,lose,win,stay,0,triangle,triangle,0.5,right
210,128,11,triangle,right,0.492256800001996,1,win,lose,shift,0,triangle,triangle,0.5,right
210,129,11,triangle,right,0.381677800001853,1,win,win,stay,0,triangle,triangle,0.5,right
210,130,11,triangle,right,0.497387900000831,1,win,win,stay,0,triangle,triangle,0.5,right
210,131,11,triangle,left,0.481895400002031,1,win,win,stay,0,triangle,triangle,0.5,left
210,132,11,triangle,right,0.618113799999264,1,lose,win,stay,0,triangle,circle,0.5,right
210,133,11,triangle,right,0.331669000001057,1,lose,lose,stay,0,triangle,circle,0.5,right
210,134,12,circle,left,0.336655400000382,1,win,lose,shift,1,circle,circle,0.2,right
210,135,12,circle,right,0.731598500000473,1,lose,win,stay,0,circle,triangle,0.2,left
210,136,12,circle,left,0.572823100001187,1,win,lose,stay,0,circle,circle,0.2,right
210,137,12,circle,left,0.493136300001424,1,win,win,stay,0,circle,circle,0.2,right
210,138,12,circle,left,0.568760399999519,1,win,win,stay,0,circle,circle,0.2,right
210,139,12,circle,right,0.581702600000426,1,win,win,stay,0,circle,circle,0.2,left
210,140,12,circle,left,0.586693400000513,1,win,win,stay,0,circle,circle,0.2,right
210,141,12,circle,left,0.647159300000567,1,win,win,stay,0,circle,circle,0.2,right
