sID,trial_number,trial_number_run,run,estimate1,estimate2,estimate_peer,confidence_peer,estimate1_rt,estimate2_rt,true_ratio,seen_ratio,nTotal,filler_trial,ITI,nMushrooms,nBlue,nRed,s,strategy,confidence_rating
3,1,1,1,80,75,63,2,6.957925550001164,5.47371799999746,0.75,0.7555555555555555,45,0,4.4,9 9 9 9 9,7 4 8 9 6,2 5 1 0 3,0.29411764705882354,compromise,2.4285714285714284
3,2,2,1,12,25,29,3,6.070109849999426,6.07616434999727,0.125,0.2,5,0,4.9,1 1 1 1 1,0 0 0 1 0,1 1 1 0 1,0.7647058823529411,compromise,1.25
3,3,3,1,40,30,22,3,6.178626750001058,5.00722549999773,0.375,0.4,5,0,5.2,1 1 1 1 1,1 0 0 0 1,0 1 1 1 0,0.5555555555555556,compromise,1.25
3,4,4,1,5,10,23,2,2.5116342500004976,2.35367739999674,0.125,0.13333333333333333,45,0,5.3,9 9 9 9 9,4 0 0 1 1,5 9 9 8 8,0.2777777777777778,compromise,2.4285714285714284
3,5,5,1,10,15,25,2,4.307809850000922,2.90853574999892,0.125,0.2,5,0,5,1 1 1 1 1,0 0 0 1 0,1 1 1 0 1,0.3333333333333333,compromise,1.25
3,6,6,1,85,82,70,1,7.482805749999898,4.59246679999887,0.75,0.8,5,0,5.8,1 1 1 1 1,0 1 1 1 1,1 0 0 0 0,0.2,compromise,1.25
3,7,7,1,45,44,30,1,5.369987550000587,3.41889304999859,0.375,0.37777777777777777,45,0,5.2,9 9 9 9 9,1 5 3 7 1,8 4 6 2 8,0.06666666666666667,compromise,2.4285714285714284
3,8,8,1,15,10,1,1,3.8160925499996665,6.12523849999889,0.125,0.2,5,0,5.8,1 1 1 1 1,0 0 1 0 0,1 1 0 1 1,0.35714285714285715,compromise,1.25
3,9,9,1,0,0,1,3,4.880070049997812,3.43833909999739,0,0,45,1,5.3,9 9 9 9 9,0 0 0 0 0,9 9 9 9 9,0,stay,2.4285714285714284
3,10,10,1,50,25,3,2,3.5831457500007673,7.36147489999894,0.5,0.4888888888888889,45,1,4.8,9 9 9 9 9,3 6 4 3 6,6 3 5 6 3,0.5319148936170213,compromise,2.4285714285714284
3,11,11,1,20,24,75,1,6.011816649997854,2.76711409999916,0.25,0.24444444444444444,45,1,5.1,9 9 9 9 9,2 3 4 0 2,7 6 5 9 7,0.07272727272727272,compromise,2.4285714285714284
3,12,12,1,10,12,25,1,2.6049555499994312,2.04249554999842,0.25,0.24444444444444444,45,0,4.1,9 9 9 9 9,3 3 2 2 1,6 6 7 7 8,0.13333333333333333,compromise,2.4285714285714284
3,13,13,1,25,33,40,2,5.788340650000464,6.79407399999764,0.375,0.4,5,0,4.5,1 1 1 1 1,0 0 1 1 0,1 1 0 0 1,0.5333333333333333,compromise,1.25
3,14,14,1,90,80,72,2,6.755124549999891,6.66978849999941,0.75,0.8,5,0,5.5,1 1 1 1 1,0 1 1 1 1,1 0 0 0 0,0.5555555555555556,compromise,1.25
3,15,15,1,85,76,69,3,9.817394150000837,6.22762509999848,0.75,0.7555555555555555,45,0,4.7,9 9 9 9 9,7 7 6 6 8,2 2 3 3 1,0.5625,compromise,2.4285714285714284
3,16,16,1,80,80,62,1,4.905042149999645,2.57435239999904,0.75,0.7555555555555555,45,0,5.5,9 9 9 9 9,6 6 7 8 7,3 3 2 1 2,-0,stay,2.4285714285714284
3,17,17,1,5,50,92,3,1.974273349998839,4.05009279999831,0.125,0.13333333333333333,45,1,5.6,9 9 9 9 9,3 2 0 0 1,6 7 9 9 8,0.5172413793103449,compromise,2.4285714285714284
3,18,18,1,38,25,21,3,5.490848749999714,4.82787109999845,0.375,0.37777777777777777,45,0,5.6,9 9 9 9 9,2 3 5 4 3,7 6 4 5 6,0.7647058823529411,compromise,2.4285714285714284
3,19,19,1,13,13,31,1,3.807475550000163,2.6750706999992,0.25,0.24444444444444444,45,0,6,9 9 9 9 9,4 0 2 3 2,5 9 7 6 7,0,stay,2.4285714285714284
3,20,20,1,73,70,57,1,3.9325960500009387,3.37698354999884,0.625,0.6222222222222222,45,0,5.1,9 9 9 9 9,4 7 7 5 5,5 2 2 4 4,0.1875,compromise,2.4285714285714284
3,21,21,1,15,17,30,1,5.882598850001159,1.7201920999978,0.25,0.2,5,0,5.1,1 1 1 1 1,0 0 0 0 1,1 1 1 1 0,0.13333333333333333,compromise,1.25
3,22,22,1,15,25,33,3,5.121673650000957,5.21066210000026,0.25,0.2,5,0,5.1,1 1 1 1 1,0 0 1 0 0,1 1 0 1 1,0.5555555555555556,compromise,1.25
3,23,23,1,15,3,1,3,4.541062549998969,3.78669059999811,0.125,0.2,5,0,4.4,1 1 1 1 1,0 1 0 0 0,1 0 1 1 1,0.8571428571428571,compromise,1.25
3,24,24,1,14,24,30,3,2.7461771500002214,3.78384149999692,0.25,0.24444444444444444,45,0,4.1,9 9 9 9 9,1 2 4 3 1,8 7 5 6 8,0.625,compromise,2.4285714285714284
3,25,25,1,97,98,96,3,5.149455650000164,4.4070294999965,1,1,5,1,4,1 1 1 1 1,1 1 1 1 1,0 0 0 0 0,-1,stay,1.25
3,26,1,2,24,37,40,3,8.749349630001234,1.68306533000214,0.375,0.4,5,0,5.3,1 1 1 1 1,1 0 0 0 1,0 1 1 1 0,0.8125,compromise,1.25
3,27,2,2,56,68,74,3,5.482662830003392,5.07732464000037,0.625,0.6222222222222222,45,0,4.2,9 9 9 9 9,3 7 5 5 8,6 2 4 4 1,0.6666666666666666,compromise,2.4285714285714284
3,28,3,2,44,35,28,3,4.988161630000832,4.04792244000055,0.375,0.37777777777777777,45,0,4.1,9 9 9 9 9,5 3 2 3 4,4 6 7 6 5,0.5625,compromise,2.4285714285714284
3,29,4,2,67,67,65,1,7.769042930000069,3.0287465399997,0.625,0.6,5,1,4.6,1 1 1 1 1,0 1 1 1 0,1 0 0 0 1,-0,stay,1.25
3,30,5,2,50,45,33,2,3.4156089300013264,3.89016984000045,0.375,0.37777777777777777,45,0,4.1,9 9 9 9 9,2 4 3 4 4,7 5 6 5 5,0.29411764705882354,compromise,2.4285714285714284
3,31,6,2,10,15,25,2,4.075780929999382,6.48667514000044,0.25,0.24444444444444444,45,0,5.7,9 9 9 9 9,1 2 3 4 1,8 7 6 5 8,0.3333333333333333,compromise,2.4285714285714284
3,32,7,2,81,72,64,2,7.56326953000098,2.57303174000299,0.75,0.8,5,0,4.5,1 1 1 1 1,1 1 0 1 1,0 0 1 0 0,0.5294117647058824,compromise,1.25
3,33,8,2,11,19,26,3,1.9965021300013177,2.03593426999942,0.25,0.24444444444444444,45,0,5.2,9 9 9 9 9,1 4 0 4 2,8 5 9 5 7,0.5333333333333333,compromise,2.4285714285714284
3,34,9,2,6,13,23,2,2.1947405299997627,4.1312565699991,0.125,0.13333333333333333,45,0,5.6,9 9 9 9 9,2 0 0 2 2,7 9 9 7 7,0.4117647058823529,compromise,2.4285714285714284
3,35,10,2,14,8,1,2,5.865707730001304,2.53710814000078,0.125,0.2,5,0,4.7,1 1 1 1 1,0 0 1 0 0,1 1 0 1 1,0.46153846153846156,compromise,1.25
3,36,11,2,40,40,40,2,8.413206930001252,4.61910914000146,0.375,0.4,5,1,5.7,1 1 1 1 1,1 0 0 0 1,0 1 1 1 0,NA,NA,1.25
3,37,12,2,67,80,83,3,3.257304730001124,3.55163554000137,0.75,0.7555555555555555,45,0,5.5,9 9 9 9 9,6 5 6 9 8,3 4 3 0 1,0.8125,compromise,2.4285714285714284
3,38,13,2,5,10,20,3,1.5699565300001268,1.33120914000028,0.125,0.13333333333333333,45,0,4.7,9 9 9 9 9,0 3 1 1 1,9 6 8 8 8,0.3333333333333333,compromise,2.4285714285714284
3,39,14,2,12,50,88,3,3.159204530000352,4.76077054000052,0.125,0.2,5,1,5.5,1 1 1 1 1,0 0 0 1 0,1 1 1 0 1,0.5,compromise,1.25
3,40,15,2,12,15,28,2,2.252933629999461,2.05493693999961,0.25,0.24444444444444444,45,0,5.2,9 9 9 9 9,1 4 2 3 1,8 5 7 6 8,0.1875,compromise,2.4285714285714284
3,41,16,2,5,6,20,1,2.0201824300002045,2.90020874000038,0.125,0.13333333333333333,45,0,4.1,9 9 9 9 9,2 3 1 0 0,7 6 8 9 9,0.06666666666666667,compromise,2.4285714285714284
3,42,17,2,31,34,47,1,2.415765530000499,2.74087434000103,0.375,0.37777777777777777,45,0,4,9 9 9 9 9,5 1 2 5 4,4 8 7 4 5,0.1875,compromise,2.4285714285714284
3,43,18,2,55,55,55,1,6.466001029999461,3.14370143999986,0.625,0.6222222222222222,45,1,4.3,9 9 9 9 9,7 7 5 4 5,2 2 4 5 4,NA,NA,2.4285714285714284
3,44,19,2,10,12,27,1,3.452877030000309,3.45714453999972,0.125,0.13333333333333333,45,0,5.2,9 9 9 9 9,1 2 2 1 0,8 7 7 8 9,0.11764705882352941,compromise,2.4285714285714284
3,45,20,2,20,17,5,1,6.620076830000471,2.65477663999991,0.125,0.2,5,0,4.3,1 1 1 1 1,0 0 0 1 0,1 1 1 0 1,0.2,compromise,1.25
3,46,21,2,29,40,47,2,7.871502930000133,2.73983774000044,0.375,0.4,5,0,5.5,1 1 1 1 1,0 0 1 1 0,1 1 0 0 1,0.6111111111111112,compromise,1.25
3,47,22,2,55,58,71,1,3.383854830000928,3.25194493999879,0.625,0.6222222222222222,45,0,4.8,9 9 9 9 9,6 5 5 5 7,3 4 4 4 2,0.1875,compromise,2.4285714285714284
3,48,23,2,80,69,65,3,4.394700130000274,3.82628044000012,0.75,0.8,5,0,5.8,1 1 1 1 1,0 1 1 1 1,1 0 0 0 0,0.7333333333333333,compromise,1.25
3,49,24,2,65,56,50,3,6.207664430001387,3.74938664000001,0.625,0.6,5,0,4.4,1 1 1 1 1,0 1 1 0 1,1 0 0 1 0,0.6,compromise,1.25
3,50,25,2,35,36,50,1,6.549174730002051,5.80688394000208,0.375,0.4,5,0,4.1,1 1 1 1 1,1 1 0 0 0,0 0 1 1 1,0.06666666666666667,compromise,1.25
3,51,1,3,55,62,70,3,4.874350450001657,4.66351144999862,0.625,0.6222222222222222,45,0,5.4,9 9 9 9 9,6 6 5 3 8,3 3 4 6 1,0.4666666666666667,compromise,2.4285714285714284
3,52,2,3,60,62,75,1,4.45338824999817,2.73921189999783,0.625,0.6,5,0,4.5,1 1 1 1 1,1 1 0 1 0,0 0 1 0 1,0.13333333333333333,compromise,1.25
3,53,3,3,20,20,21,1,6.657709049999539,2.15171349999946,0.25,0.2,5,1,4.2,1 1 1 1 1,0 1 0 0 0,1 0 1 1 1,0,stay,1.25
3,54,4,3,20,30,35,2,4.266032450001148,2.92626340000061,0.25,0.2,5,0,4.6,1 1 1 1 1,1 0 0 0 0,0 1 1 1 1,0.6666666666666666,compromise,1.25
3,55,5,3,85,85,67,1,2.899249449999843,3.45977225000024,0.75,0.7555555555555555,45,0,4.7,9 9 9 9 9,8 8 7 6 5,1 1 2 3 4,-0,stay,2.4285714285714284
3,56,6,3,20,28,35,1,4.037117949999811,3.09069634999651,0.25,0.2,5,0,5.5,1 1 1 1 1,0 0 1 0 0,1 1 0 1 1,0.5333333333333333,compromise,1.25
3,57,7,3,60,70,75,2,2.9159370500001387,3.22517259999768,0.625,0.6,5,0,4.6,1 1 1 1 1,1 0 0 1 1,0 1 1 0 0,0.6666666666666666,compromise,1.25
3,58,8,3,80,49,24,2,2.7866057499995804,8.54021429999921,0.75,0.8,5,1,4.6,1 1 1 1 1,1 0 1 1 1,0 1 0 0 0,0.5535714285714286,compromise,1.25
3,59,9,3,78,75,60,2,3.4334241499982454,4.06826570000158,0.75,0.7555555555555555,45,0,5.2,9 9 9 9 9,8 7 6 8 5,1 2 3 1 4,0.16666666666666666,compromise,2.4285714285714284
3,60,10,3,60,74,75,3,4.307730350001293,2.93290529999831,0.625,0.6,5,0,4.5,1 1 1 1 1,0 0 1 1 1,1 1 0 0 0,0.9333333333333333,compromise,1.25
3,61,11,3,20,33,35,3,3.4700160499996855,4.63597300000038,0.25,0.2,5,0,4.6,1 1 1 1 1,0 0 1 0 0,1 1 0 1 1,0.8666666666666667,compromise,1.25
3,62,12,3,47,46,45,2,3.709222649998992,4.99150419999751,0.375,0.37777777777777777,45,1,5.7,9 9 9 9 9,2 4 3 2 6,7 5 6 7 3,0.5,compromise,2.4285714285714284
3,63,13,3,60,68,77,1,3.224060649998137,3.92548349999743,0.625,0.6,5,0,5,1 1 1 1 1,0 0 1 1 1,1 1 0 0 0,0.47058823529411764,compromise,1.25
3,64,14,3,60,70,76,2,2.132515949999288,3.5447824999992,0.625,0.6,5,0,5.6,1 1 1 1 1,0 0 1 1 1,1 1 0 0 0,0.625,compromise,1.25
3,65,15,3,100,100,99,3,1.74668544999804,1.86431399999856,1,1,45,1,5.8,9 9 9 9 9,9 9 9 9 9,0 0 0 0 0,-0,stay,2.4285714285714284
3,66,16,3,80,70,65,3,4.686115749998862,4.13939949999985,0.75,0.8,5,0,5.2,1 1 1 1 1,1 1 0 1 1,0 0 1 0 0,0.6666666666666666,compromise,1.25
3,67,17,3,20,30,35,2,3.0159282499971596,3.11143314999936,0.25,0.2,5,0,5.3,1 1 1 1 1,0 0 1 0 0,1 1 0 1 1,0.6666666666666666,compromise,1.25
3,68,18,3,58,64,75,2,3.8778487500003394,2.14334819999749,0.625,0.6222222222222222,45,0,5.2,9 9 9 9 9,6 4 4 8 6,3 5 5 1 3,0.35294117647058826,compromise,2.4285714285714284
3,69,19,3,16,6,1,3,2.303430549998666,3.41977340000085,0.125,0.13333333333333333,45,0,4.2,9 9 9 9 9,2 2 1 1 0,7 7 8 8 9,0.6666666666666666,compromise,2.4285714285714284
3,70,20,3,3,1,1,3,1.5116613500013045,1.59185719999914,0,0,5,1,5.2,1 1 1 1 1,0 0 0 0 0,1 1 1 1 1,1,copy,1.25
3,71,21,3,40,29,22,1,8.74456905000261,3.30999579999843,0.375,0.4,5,0,4.5,1 1 1 1 1,1 0 0 0 1,0 1 1 1 0,0.6111111111111112,compromise,1.25
3,72,22,3,56,69,72,2,2.7658958500014705,4.13823874999798,0.625,0.6222222222222222,45,0,5.2,9 9 9 9 9,3 5 7 7 6,6 4 2 2 3,0.8125,compromise,2.4285714285714284
3,73,23,3,80,73,65,1,3.999277249999068,3.0463751999996,0.75,0.8,5,0,4.3,1 1 1 1 1,1 1 0 1 1,0 0 1 0 0,0.4666666666666667,compromise,1.25
3,74,24,3,60,53,45,2,9.314742450002086,4.30395049999788,0.375,0.37777777777777777,45,0,5.8,9 9 9 9 9,4 4 3 4 2,5 5 6 5 7,0.4666666666666667,compromise,2.4285714285714284
3,75,25,3,75,52,25,2,4.375782049997724,5.90360369999871,0.75,0.7555555555555555,45,1,4.7,9 9 9 9 9,5 6 9 7 7,4 3 0 2 2,0.46,compromise,2.4285714285714284
6,1,1,1,20,22,35,3,10.350496589999238,6.52135318999717,0.25,0.24444444444444444,45,0,4.5,9 9 9 9 9,1 4 3 2 1,8 5 6 7 8,0.13333333333333333,compromise,2.4285714285714284
6,2,2,1,14,14,31,2,7.150399489997653,4.16816375000417,0.25,0.24444444444444444,45,0,5.6,9 9 9 9 9,2 3 3 1 2,7 6 6 8 7,0,stay,2.4285714285714284
6,3,3,1,10,15,25,3,5.920350790001976,6.34860141999525,0.125,0.2,5,0,4.9,1 1 1 1 1,0 0 0 0 1,1 1 1 1 0,0.3333333333333333,compromise,1
6,4,4,1,91,89,75,3,5.3780279899983725,6.00182321999819,0.75,0.7555555555555555,45,0,4.8,9 9 9 9 9,7 8 7 4 8,2 1 2 5 1,0.125,compromise,2.4285714285714284
6,5,5,1,89,89,71,1,7.482423890000064,4.38967181999396,0.75,0.8,5,0,5.2,1 1 1 1 1,1 1 0 1 1,0 0 1 0 0,-0,stay,1
6,6,6,1,42,42,26,1,8.504958990000887,4.18731181999829,0.375,0.37777777777777777,45,0,4.2,9 9 9 9 9,4 3 3 3 4,5 6 6 6 5,-0,stay,2.4285714285714284
6,7,7,1,37,37,21,2,5.1368852899977355,6.94762022000214,0.375,0.37777777777777777,45,0,4.5,9 9 9 9 9,5 2 4 5 1,4 7 5 4 8,-0,stay,2.4285714285714284
6,8,8,1,88,80,70,2,4.267473489999247,4.57635472000038,0.75,0.8,5,0,4.1,1 1 1 1 1,1 1 1 1 0,0 0 0 0 1,0.4444444444444444,compromise,1
6,9,9,1,63,63,61,1,6.661624190001021,3.68683271999907,0.625,0.6,5,1,4.8,1 1 1 1 1,1 0 1 0 1,0 1 0 1 0,-0,stay,1
6,10,10,1,4,4,22,2,4.425782490001438,2.21532751999985,0.125,0.13333333333333333,45,0,5.9,9 9 9 9 9,2 1 0 1 2,7 8 9 8 7,0,stay,2.4285714285714284
6,11,11,1,17,17,15,2,5.761689689999912,4.36680961999809,0.375,0.37777777777777777,45,1,4.9,9 9 9 9 9,4 4 3 2 4,5 5 6 7 5,-0,stay,2.4285714285714284
6,12,12,1,97,97,96,3,3.7838814900023863,4.6886767199976,1,1,5,1,4.4,1 1 1 1 1,1 1 1 1 1,0 0 0 0 0,-0,stay,1
6,13,13,1,3,3,4,3,3.9111592900007963,1.76020031000007,0,0,5,1,4.5,1 1 1 1 1,0 0 0 0 0,1 1 1 1 1,0,stay,1
6,14,14,1,51,51,49,2,4.682497090005199,3.38882692000334,0.5,0.4888888888888889,45,1,4.6,9 9 9 9 9,5 5 5 3 4,4 4 4 6 5,-0,stay,2.4285714285714284
6,15,15,1,47,46,30,3,5.107494489999226,3.3915783199991,0.375,0.37777777777777777,45,0,4.8,9 9 9 9 9,4 2 5 3 3,5 7 4 6 6,0.058823529411764705,compromise,2.4285714285714284
6,16,16,1,77,71,60,3,6.394999989995995,6.30824521999602,0.625,0.6222222222222222,45,0,5.8,9 9 9 9 9,6 6 6 6 4,3 3 3 3 5,0.35294117647058826,compromise,2.4285714285714284
6,17,17,1,58,58,75,1,8.97753948999889,6.2385283199983,0.625,0.6222222222222222,45,0,4.7,9 9 9 9 9,6 5 7 4 6,3 4 2 5 3,0,stay,2.4285714285714284
6,18,18,1,64,64,46,1,3.174373990001186,5.7884008200017,0.625,0.6222222222222222,45,0,4.5,9 9 9 9 9,7 4 3 6 8,2 5 6 3 1,-0,stay,2.4285714285714284
6,19,19,1,90,82,72,3,5.245119390001491,3.57283121999717,0.75,0.8,5,0,5.1,1 1 1 1 1,0 1 1 1 1,1 0 0 0 0,0.4444444444444444,compromise,1
6,20,20,1,6,15,24,3,2.6160058899949945,3.47334831999979,0.25,0.2,5,0,5.4,1 1 1 1 1,0 0 0 1 0,1 1 1 0 1,0.5,compromise,1
6,21,21,1,70,64,52,3,6.220362489999388,4.15264652000405,0.625,0.6,5,0,4.1,1 1 1 1 1,0 1 0 1 1,1 0 1 0 0,0.3333333333333333,compromise,1
6,22,22,1,6,6,21,1,4.433870790002402,1.96743300999879,0.125,0.2,5,0,5.5,1 1 1 1 1,0 1 0 0 0,1 0 1 1 1,0,stay,1
6,23,23,1,35,41,50,2,6.332782789999328,8.04568841999571,0.375,0.4,5,0,4.4,1 1 1 1 1,1 0 1 0 0,0 1 0 1 1,0.4,compromise,1
6,24,24,1,5,5,20,1,4.3409576900012325,2.13479412000379,0.125,0.13333333333333333,45,0,5.5,9 9 9 9 9,1 1 0 2 2,8 8 9 7 7,0,stay,2.4285714285714284
6,25,25,1,36,40,77,2,4.145006889997603,7.25746042000537,0.375,0.4,5,1,5.7,1 1 1 1 1,0 0 1 1 0,1 1 0 0 1,0.0975609756097561,compromise,1
6,26,1,2,35,45,50,3,5.699372710001626,3.71902260999923,0.375,0.4,5,0,4.3,1 1 1 1 1,1 0 1 0 0,0 1 0 1 1,0.6666666666666666,compromise,1
6,27,2,2,6,7,24,1,1.604958110001462,3.91877368000132,0.25,0.2,5,0,6,1 1 1 1 1,0 0 0 0 1,1 1 1 1 0,0.05555555555555555,compromise,1
6,28,3,2,39,34,23,3,6.1908470099988335,4.84961008000028,0.375,0.37777777777777777,45,0,5.2,9 9 9 9 9,1 2 4 6 4,8 7 5 3 5,0.3125,compromise,2.4285714285714284
6,29,4,2,65,65,49,1,2.6964901100000134,4.60766148000039,0.625,0.6,5,0,5.4,1 1 1 1 1,0 1 1 1 0,1 0 0 0 1,-0,stay,1
6,30,5,2,59,60,75,1,9.766146910002135,2.5317355799998,0.625,0.6,5,0,5.3,1 1 1 1 1,1 0 1 1 0,0 1 0 0 1,0.0625,compromise,1
6,31,6,2,1,1,1,3,9.196731909996743,1.9557028800009,0,0,45,1,5.7,9 9 9 9 9,0 0 0 0 0,9 9 9 9 9,NA,NA,2.4285714285714284
6,32,7,2,32,41,50,2,4.741169810000429,3.38880728000004,0.375,0.4,5,0,5.5,1 1 1 1 1,1 0 0 1 0,0 1 1 0 1,0.5,compromise,1
6,33,8,2,11,17,29,2,4.392628409997997,5.57032398000229,0.25,0.2,5,0,5.8,1 1 1 1 1,0 0 1 0 0,1 1 0 1 1,0.3333333333333333,compromise,1
6,34,9,2,12,13,28,1,4.157819810003275,6.53722248000122,0.125,0.2,5,0,4.4,1 1 1 1 1,0 1 0 0 0,1 0 1 1 1,0.0625,compromise,1
6,35,10,2,91,82,74,3,7.125904510001419,3.57930028000192,0.75,0.8,5,0,5.4,1 1 1 1 1,1 1 1 1 0,0 0 0 0 1,0.5294117647058824,compromise,1
6,36,11,2,88,88,71,1,5.453718310003751,5.46104217999891,0.75,0.7555555555555555,45,0,4.1,9 9 9 9 9,8 9 5 5 7,1 0 4 4 2,-0,stay,2.4285714285714284
6,37,12,2,92,88,76,2,4.394254210001236,4.79647658000249,0.75,0.8,5,0,4.9,1 1 1 1 1,1 0 1 1 1,0 1 0 0 0,0.25,compromise,1
6,38,13,2,91,91,90,2,4.266114510002808,4.59670238000035,0.75,0.8,5,1,4.2,1 1 1 1 1,1 0 1 1 1,0 1 0 0 0,-0,stay,1
6,39,14,2,87,85,70,2,9.649369210001169,3.74741778000316,0.75,0.7555555555555555,45,0,5.9,9 9 9 9 9,5 8 7 7 7,4 1 2 2 2,0.11764705882352941,compromise,2.4285714285714284
6,40,15,2,4,10,20,2,6.132645710003999,6.35635267999896,0.125,0.13333333333333333,45,0,5.2,9 9 9 9 9,0 3 3 0 0,9 6 6 9 9,0.375,compromise,2.4285714285714284
6,41,16,2,67,61,50,3,5.882515710003645,5.90743447999921,0.625,0.6222222222222222,45,0,5.5,9 9 9 9 9,6 5 5 6 6,3 4 4 3 3,0.35294117647058826,compromise,2.4285714285714284
6,42,17,2,7,13,22,2,3.2492103100012173,6.02149108000231,0.125,0.2,5,0,4.8,1 1 1 1 1,0 0 0 1 0,1 1 1 0 1,0.4,compromise,1
6,43,18,2,12,14,29,2,1.4658029099991836,3.59309088000737,0.25,0.24444444444444444,45,0,4.3,9 9 9 9 9,2 3 2 1 3,7 6 7 8 6,0.11764705882352941,compromise,2.4285714285714284
6,44,19,2,8,12,24,3,3.6662296099966625,5.65774747999967,0.25,0.24444444444444444,45,0,4.5,9 9 9 9 9,0 2 4 3 2,9 7 5 6 7,0.25,compromise,2.4285714285714284
6,45,20,2,63,57,46,2,6.078578610002296,7.64100478000182,0.625,0.6,5,0,4.8,1 1 1 1 1,1 1 0 0 1,0 0 1 1 0,0.35294117647058826,compromise,1
6,46,21,2,67,67,67,1,9.028264610002225,5.87775918000261,0.625,0.6222222222222222,45,1,4.2,9 9 9 9 9,6 6 7 4 5,3 3 2 5 4,NA,NA,2.4285714285714284
6,47,22,2,69,65,54,2,6.976064710001083,3.69133828000122,0.625,0.6222222222222222,45,0,5.1,9 9 9 9 9,8 5 6 2 7,1 4 3 7 2,0.26666666666666666,compromise,2.4285714285714284
6,48,23,2,33,40,50,1,4.290993710001203,5.361584580005,0.375,0.4,5,0,4,1 1 1 1 1,1 1 0 0 0,0 0 1 1 1,0.4117647058823529,compromise,1
6,49,24,2,14,14,30,1,2.094014310001512,4.51466888999494,0.25,0.24444444444444444,45,0,4.8,9 9 9 9 9,1 1 4 2 3,8 8 5 7 6,0,stay,2.4285714285714284
6,50,25,2,72,72,18,2,8.902700610000466,4.3569218800003,0.75,0.7555555555555555,45,1,5.3,9 9 9 9 9,6 8 6 8 6,3 1 3 1 3,-0,stay,2.4285714285714284
6,51,1,3,11,11,10,1,4.849336330000369,3.09016762999454,0.25,0.2,5,1,4.6,1 1 1 1 1,0 0 1 0 0,1 1 0 1 1,-0,stay,1
6,52,2,3,77,77,59,1,5.6036874299970805,4.7020658399997,0.75,0.7555555555555555,45,0,4,9 9 9 9 9,9 7 6 6 6,0 2 3 3 3,-0,stay,2.4285714285714284
6,53,3,3,86,86,68,2,5.3742067299972405,4.98841334000099,0.75,0.7555555555555555,45,0,4.5,9 9 9 9 9,7 8 6 8 5,2 1 3 1 4,-0,stay,2.4285714285714284
6,54,4,3,63,70,80,3,4.811836329994549,4.14675213999726,0.625,0.6,5,0,5.3,1 1 1 1 1,1 1 1 0 0,0 0 0 1 1,0.4117647058823529,compromise,1
6,55,5,3,52,54,67,2,4.032436329995107,3.32288153999616,0.625,0.6222222222222222,45,0,5.7,9 9 9 9 9,7 6 6 6 3,2 3 3 3 6,0.13333333333333333,compromise,2.4285714285714284
6,56,6,3,92,90,74,1,4.374224529998173,4.54703350999989,0.75,0.8,5,0,5.2,1 1 1 1 1,1 1 0 1 1,0 0 1 0 0,0.1111111111111111,compromise,1
6,57,7,3,9,15,25,2,3.557533430001058,3.88741213999674,0.25,0.2,5,0,4.4,1 1 1 1 1,0 1 0 0 0,1 0 1 1 1,0.375,compromise,1
6,58,8,3,9,17,27,3,3.583711929997662,3.46459934000086,0.25,0.2,5,0,5.3,1 1 1 1 1,0 0 0 0 1,1 1 1 1 0,0.4444444444444444,compromise,1
6,59,9,3,43,41,27,1,4.532555030000367,5.6439322399965,0.375,0.4,5,0,5.1,1 1 1 1 1,0 0 1 1 0,1 1 0 0 1,0.125,compromise,1
6,60,10,3,6,7,22,3,3.8324830299970927,2.52296573999774,0.125,0.13333333333333333,45,0,5,9 9 9 9 9,0 1 2 2 1,9 8 7 7 8,0.0625,compromise,2.4285714285714284
6,61,11,3,7,13,25,3,2.2202405299976817,2.94196123999791,0.125,0.2,5,0,4.2,1 1 1 1 1,0 1 0 0 0,1 0 1 1 1,0.3333333333333333,compromise,1
6,62,12,3,28,34,45,3,5.224091729996871,3.44824433999747,0.375,0.4,5,0,5.3,1 1 1 1 1,0 0 1 0 1,1 1 0 1 0,0.35294117647058826,compromise,1
6,63,13,3,100,99,98,3,3.638359929998842,3.64478403999965,1,1,45,1,5.9,9 9 9 9 9,9 9 9 9 9,0 0 0 0 0,0.5,compromise,2.4285714285714284
6,64,14,3,19,19,17,1,4.503445130001637,3.54136604000087,0.25,0.24444444444444444,45,1,4.1,9 9 9 9 9,3 2 2 3 1,6 7 7 6 8,-0,stay,2.4285714285714284
6,65,15,3,8,9,10,3,1.7826421299978392,2.58290933999524,0.125,0.2,5,1,5.1,1 1 1 1 1,0 0 1 0 0,1 1 0 1 1,0.5,compromise,1
6,66,16,3,38,42,53,2,4.124353129998781,2.24912684000083,0.375,0.37777777777777777,45,0,4.9,9 9 9 9 9,4 3 3 4 3,5 6 6 5 6,0.26666666666666666,compromise,2.4285714285714284
6,67,17,3,36,36,20,1,3.440961829997832,3.33987223999793,0.25,0.24444444444444444,45,0,4.4,9 9 9 9 9,1 0 2 5 3,8 9 7 4 6,-0,stay,2.4285714285714284
6,68,18,3,82,80,65,3,4.134202429995639,7.2117314399984,0.75,0.7555555555555555,45,0,4.7,9 9 9 9 9,8 5 8 6 7,1 4 1 3 2,0.11764705882352941,compromise,2.4285714285714284
6,69,19,3,13,18,30,3,4.063408829995751,4.88585843999681,0.125,0.13333333333333333,45,0,5.8,9 9 9 9 9,1 2 1 1 1,8 7 8 8 8,0.29411764705882354,compromise,2.4285714285714284
6,70,20,3,7,13,23,2,3.7668252300027234,9.17686533999949,0.125,0.2,5,0,5.8,1 1 1 1 1,0 0 1 0 0,1 1 0 1 1,0.375,compromise,1
6,71,21,3,11,30,80,3,3.049337229997036,11.1354244399954,0.125,0.13333333333333333,45,1,4.9,9 9 9 9 9,1 0 2 1 2,8 9 7 8 7,0.2753623188405797,compromise,2.4285714285714284
6,72,22,3,9,12,25,1,2.846800629999052,4.04933196999991,0.125,0.13333333333333333,45,0,5.7,9 9 9 9 9,1 2 1 0 2,8 7 8 9 7,0.1875,compromise,2.4285714285714284
6,73,23,3,36,36,53,1,2.4026712299964856,4.10483133999878,0.375,0.37777777777777777,45,0,5,9 9 9 9 9,3 2 3 5 4,6 7 6 4 5,0,stay,2.4285714285714284
6,74,24,3,11,13,26,1,2.251832429999922,2.69907984000019,0.25,0.2,5,0,4.6,1 1 1 1 1,0 0 0 1 0,1 1 1 0 1,0.13333333333333333,compromise,1
6,75,25,3,62,71,80,2,6.7575289300039,4.67926213999817,0.625,0.6,5,0,5.1,1 1 1 1 1,1 0 1 0 1,0 1 0 1 0,0.5,compromise,1
8,1,1,1,80,80,63,1,5.363055459999487,6.32402876000015,0.75,0.8,5,0,4.7,1 1 1 1 1,1 1 1 0 1,0 0 0 1 0,-0,stay,3
8,2,2,1,20,20,20,2,6.867331060000652,3.92475611999998,0.375,0.4,5,1,4.3,1 1 1 1 1,1 0 0 1 0,0 1 1 0 1,NA,NA,3
8,3,3,1,80,80,65,2,7.936351559999821,6.60290718000033,0.625,0.6,5,0,4.2,1 1 1 1 1,1 1 0 0 1,0 0 1 1 0,-0,stay,3
8,4,4,1,78,78,60,1,6.7666124599991235,6.0855514800005,0.75,0.7555555555555555,45,0,5.1,9 9 9 9 9,7 6 7 7 7,2 3 2 2 2,-0,stay,2.2857142857142856
8,5,5,1,80,72,65,3,7.6347983600007865,5.69820277999952,0.75,0.8,5,0,4.6,1 1 1 1 1,1 1 1 0 1,0 0 0 1 0,0.5333333333333333,compromise,3
8,6,6,1,45,43,27,1,9.73409656000058,6.64666628000032,0.375,0.4,5,0,4.5,1 1 1 1 1,1 0 0 0 1,0 1 1 1 0,0.1111111111111111,compromise,3
8,7,7,1,80,80,65,1,5.378234860000703,6.1616609799994,0.625,0.6,5,0,5.8,1 1 1 1 1,0 0 1 1 1,1 1 0 0 0,-0,stay,3
8,8,8,1,4,4,3,3,10.633459460000267,1.94993137999973,0,0,45,1,5.8,9 9 9 9 9,0 0 0 0 0,9 9 9 9 9,-0,stay,2.2857142857142856
8,9,9,1,15,15,31,1,2.796180660000573,3.26872637999986,0.25,0.24444444444444444,45,0,5.4,9 9 9 9 9,3 1 3 3 1,6 8 6 6 8,0,stay,2.2857142857142856
8,10,10,1,20,29,35,3,5.668504160000339,7.34672127999966,0.375,0.4,5,0,5.6,1 1 1 1 1,0 0 1 1 0,1 1 0 0 1,0.6,compromise,3
8,11,11,1,76,74,61,3,4.5990770600010364,3.66770008000003,0.75,0.7555555555555555,45,0,5.7,9 9 9 9 9,7 6 9 6 6,2 3 0 3 3,0.13333333333333333,compromise,2.2857142857142856
8,12,12,1,15,17,30,1,4.161656559999756,5.07935088000067,0.25,0.24444444444444444,45,0,5,9 9 9 9 9,3 2 2 2 2,6 7 7 7 7,0.13333333333333333,compromise,2.2857142857142856
8,13,13,1,85,78,67,2,7.3003827600005025,3.7338848799991,0.75,0.7555555555555555,45,0,5,9 9 9 9 9,6 7 7 8 6,3 2 2 1 3,0.3888888888888889,compromise,2.2857142857142856
8,14,14,1,53,53,35,1,5.0530941600000006,7.48018627999954,0.375,0.37777777777777777,45,0,4.7,9 9 9 9 9,3 3 3 4 4,6 6 6 5 5,-0,stay,2.2857142857142856
8,15,15,1,20,20,36,1,6.049796560000686,3.8465553799997,0.375,0.4,5,0,5.6,1 1 1 1 1,0 1 0 1 0,1 0 1 0 1,0,stay,3
8,16,16,1,65,56,48,3,5.886707159999787,6.77977207999993,0.625,0.6222222222222222,45,0,4,9 9 9 9 9,7 4 5 8 4,2 5 4 1 5,0.5294117647058824,compromise,2.2857142857142856
8,17,17,1,80,80,80,2,26.745153159999063,4.32641597999918,0.75,0.8,5,1,4.3,1 1 1 1 1,1 1 1 1 0,0 0 0 0 1,NA,NA,3
8,18,18,1,50,43,35,3,3.7453004600001805,7.91495507999934,0.375,0.37777777777777777,45,0,5.4,9 9 9 9 9,1 7 5 1 3,8 2 4 8 6,0.4666666666666667,compromise,2.2857142857142856
8,19,19,1,80,76,65,3,4.140646360000574,9.38040201999956,0.75,0.8,5,0,4.1,1 1 1 1 1,1 0 1 1 1,0 1 0 0 0,0.26666666666666666,compromise,3
8,20,20,1,5,10,22,2,3.3322608600010426,1.92556468000021,0.125,0.13333333333333333,45,0,4.2,9 9 9 9 9,1 1 2 2 0,8 8 7 7 9,0.29411764705882354,compromise,2.2857142857142856
8,21,21,1,80,80,63,2,9.887202560000333,12.5463040800005,0.125,0.2,5,0,4.5,1 1 1 1 1,0 0 0 0 1,1 1 1 1 0,-0,stay,3
8,22,22,1,26,25,44,1,12.149070759999631,2.10927978000018,0.375,0.37777777777777777,45,0,5.6,9 9 9 9 9,3 5 0 5 4,6 4 9 4 5,-0.05555555555555555,stay,2.2857142857142856
8,23,23,1,81,81,65,2,8.578594960000373,8.39603648000048,0.75,0.7555555555555555,45,0,4.4,9 9 9 9 9,6 7 7 6 8,3 2 2 3 1,-0,stay,2.2857142857142856
8,24,24,1,15,15,14,3,6.97391325999979,3.16586168000049,0.125,0.13333333333333333,45,1,5.2,9 9 9 9 9,0 1 1 1 3,9 8 8 8 6,-0,stay,2.2857142857142856
8,25,25,1,64,65,49,1,3.183553060000122,3.30013117999988,0.625,0.6222222222222222,45,0,5.4,9 9 9 9 9,5 4 7 5 7,4 5 2 4 2,-0.06666666666666667,stay,2.2857142857142856
8,26,1,2,10,15,25,2,2.829673549999825,3.7642929499998,0.125,0.13333333333333333,45,0,5.8,9 9 9 9 9,4 0 1 0 1,5 9 8 9 8,0.3333333333333333,compromise,2.2857142857142856
8,27,2,2,80,80,80,1,3.7989749499993195,7.57956389999981,0.625,0.6,5,1,4.6,1 1 1 1 1,0 1 0 1 1,1 0 1 0 0,NA,NA,3
8,28,3,2,8,8,24,2,2.2738178500003414,5.72339530000045,0.25,0.24444444444444444,45,0,4.1,9 9 9 9 9,4 2 3 2 0,5 7 6 7 9,0,stay,2.2857142857142856
8,29,4,2,20,20,86,3,3.3323940499994933,9.21721820000039,0.125,0.2,5,1,4.7,1 1 1 1 1,0 1 0 0 0,1 0 1 1 1,0,stay,3
8,30,5,2,40,40,23,2,9.074139350000223,2.08924200000001,0.375,0.4,5,0,5,1 1 1 1 1,0 1 0 0 1,1 0 1 1 0,-0,stay,3
8,31,6,2,30,30,31,2,4.023869350000496,4.04921789999935,0.375,0.37777777777777777,45,1,4.7,9 9 9 9 9,6 1 4 3 3,3 8 5 6 6,0,stay,2.2857142857142856
8,32,7,2,18,21,35,2,4.358410349999758,1.3872499500003,0.375,0.37777777777777777,45,0,4.1,9 9 9 9 9,4 3 3 3 4,5 6 6 6 5,0.17647058823529413,compromise,2.2857142857142856
8,33,8,2,40,32,24,3,4.708278049999535,2.01569749999999,0.375,0.4,5,0,5.9,1 1 1 1 1,1 0 0 1 0,0 1 1 0 1,0.5,compromise,3
8,34,9,2,94,94,95,3,5.8212946499998,4.04646119999961,1,1,5,1,5.3,1 1 1 1 1,1 1 1 1 1,0 0 0 0 0,0,stay,3
8,35,10,2,80,80,65,2,3.9119606499998554,2.41306929999973,0.75,0.8,5,0,5.2,1 1 1 1 1,1 1 0 1 1,0 0 1 0 0,-0,stay,3
8,36,11,2,20,23,37,2,2.7821993500001554,2.74050319999969,0.25,0.2,5,0,4.5,1 1 1 1 1,0 1 0 0 0,1 0 1 1 1,0.17647058823529413,compromise,3
8,37,12,2,90,90,74,1,3.690550250000342,3.85040469999967,0.75,0.7555555555555555,45,0,4.4,9 9 9 9 9,7 7 7 7 6,2 2 2 2 3,-0,stay,2.2857142857142856
8,38,13,2,80,80,65,2,7.133909050000511,3.97838390000106,0.75,0.8,5,0,5.8,1 1 1 1 1,1 1 1 1 0,0 0 0 0 1,-0,stay,3
8,39,14,2,14,18,32,2,4.788333350000357,2.39646930000072,0.25,0.24444444444444444,45,0,5.7,9 9 9 9 9,1 1 2 5 2,8 8 7 4 7,0.2222222222222222,compromise,2.2857142857142856
8,40,15,2,9,14,25,2,2.182608550000623,3.00841890000083,0.375,0.37777777777777777,45,0,4.4,9 9 9 9 9,3 3 4 6 1,6 6 5 3 8,0.3125,compromise,2.2857142857142856
8,41,16,2,20,20,3,2,4.14638664999984,3.22557649999999,0.125,0.2,5,0,5.5,1 1 1 1 1,0 0 1 0 0,1 1 0 1 1,-0,stay,3
8,42,17,2,14,23,32,3,2.457357250000314,2.37267389999943,0.25,0.24444444444444444,45,0,5.6,9 9 9 9 9,0 2 3 3 3,9 7 6 6 6,0.5,compromise,2.2857142857142856
8,43,18,2,20,33,38,3,6.021242849999908,3.1295297000006,0.25,0.2,5,0,5.3,1 1 1 1 1,0 0 0 1 0,1 1 1 0 1,0.7222222222222222,compromise,3
8,44,19,2,23,11,6,3,4.16846434999934,1.23089530000016,0.125,0.13333333333333333,45,0,5.3,9 9 9 9 9,1 2 2 1 0,8 7 7 8 9,0.7058823529411765,compromise,2.2857142857142856
8,45,20,2,94,94,93,3,3.5741103499995006,3.54153010000027,1,1,45,1,4.1,9 9 9 9 9,9 9 9 9 9,0 0 0 0 0,-0,stay,2.2857142857142856
8,46,21,2,60,59,45,2,13.829893250000168,5.72679700000026,0.375,0.4,5,0,5.8,1 1 1 1 1,0 1 1 0 0,1 0 0 1 1,0.06666666666666667,compromise,3
8,47,22,2,20,31,35,3,4.570422449999569,2.75683570000001,0.25,0.2,5,0,5.6,1 1 1 1 1,1 0 0 0 0,0 1 1 1 1,0.7333333333333333,compromise,3
8,48,23,2,20,23,36,1,2.417855050000071,15.151242599999,0.25,0.2,5,0,5.7,1 1 1 1 1,1 0 0 0 0,0 1 1 1 1,0.1875,compromise,3
8,49,24,2,19,28,35,3,2.7546071500000835,1.50941599999896,0.375,0.37777777777777777,45,0,4.3,9 9 9 9 9,4 3 3 3 4,5 6 6 6 5,0.5625,compromise,2.2857142857142856
8,50,25,2,45,36,30,3,7.199054149999029,5.02432789999966,0.25,0.24444444444444444,45,0,5.2,9 9 9 9 9,3 1 2 2 3,6 8 7 7 6,0.6,compromise,2.2857142857142856
8,51,1,3,20,23,38,2,2.3573793700006718,1.66899317000025,0.25,0.2,5,0,5.2,1 1 1 1 1,0 0 0 0 1,1 1 1 1 0,0.16666666666666666,compromise,3
8,52,2,3,11,11,26,1,1.8406001700013803,2.76809435999985,0.125,0.13333333333333333,45,0,4.4,9 9 9 9 9,3 0 1 1 1,6 9 8 8 8,0,stay,2.2857142857142856
8,53,3,3,81,73,65,3,2.214681570000721,2.66771136000079,0.75,0.7555555555555555,45,0,5.6,9 9 9 9 9,6 8 6 8 6,3 1 3 1 3,0.5,compromise,2.2857142857142856
8,54,4,3,70,61,52,3,5.082496770000944,7.42512476000047,0.625,0.6222222222222222,45,0,5.5,9 9 9 9 9,7 6 6 5 4,2 3 3 4 5,0.5,compromise,2.2857142857142856
8,55,5,3,15,9,1,3,2.7713584700004503,2.67252873000052,0.125,0.13333333333333333,45,0,5.8,9 9 9 9 9,2 0 2 0 2,7 9 7 9 7,0.42857142857142855,compromise,2.2857142857142856
8,56,6,3,20,21,37,1,2.515827369999897,1.37863675999961,0.25,0.2,5,0,5,1 1 1 1 1,0 0 0 1 0,1 1 1 0 1,0.058823529411764705,compromise,3
8,57,7,3,60,60,75,1,8.253591870000491,3.1962604600003,0.625,0.6,5,0,5.5,1 1 1 1 1,0 1 1 1 0,1 0 0 0 1,0,stay,3
8,58,8,3,20,10,3,3,5.25959586999943,1.68150676000005,0.125,0.2,5,0,5.8,1 1 1 1 1,0 0 0 0 1,1 1 1 1 0,0.5882352941176471,compromise,3
8,59,9,3,40,45,58,3,3.600839669999914,4.28176406000057,0.625,0.6,5,0,4.4,1 1 1 1 1,1 0 1 1 0,0 1 0 0 1,0.2777777777777778,compromise,3
8,60,10,3,20,20,72,1,3.524728569999752,10.1818839599991,0.25,0.2,5,1,4.1,1 1 1 1 1,0 0 0 0 1,1 1 1 1 0,0,stay,3
8,61,11,3,50,40,2,2,3.157196470000599,5.8358026599999,0.5,0.4888888888888889,45,1,5.2,9 9 9 9 9,5 3 6 4 4,4 6 3 5 5,0.20833333333333334,compromise,2.2857142857142856
8,62,12,3,60,65,78,2,4.419376069999998,6.86258365999947,0.625,0.6,5,0,4.6,1 1 1 1 1,0 1 0 1 1,1 0 1 0 0,0.2777777777777778,compromise,3
8,63,13,3,60,73,75,3,4.553071970000019,1.90013335999993,0.625,0.6,5,0,5.2,1 1 1 1 1,0 1 1 1 0,1 0 0 0 1,0.8666666666666667,compromise,3
8,64,14,3,16,16,1,1,3.483995170000526,3.64603956000064,0.125,0.13333333333333333,45,0,5.9,9 9 9 9 9,2 1 1 1 1,7 8 8 8 8,-0,stay,2.2857142857142856
8,65,15,3,81,81,63,2,3.777633670000796,36.617909659999,0.625,0.6222222222222222,45,0,4.1,9 9 9 9 9,7 7 6 4 4,2 2 3 5 5,-0,stay,2.2857142857142856
8,66,16,3,88,88,90,2,2.9490085699999327,4.3502784300008,0.75,0.7555555555555555,45,1,4.4,9 9 9 9 9,6 9 7 6 6,3 0 2 3 3,0,stay,2.2857142857142856
8,67,17,3,50,55,67,1,2.9204064699997616,3.48506186000031,0.625,0.6222222222222222,45,0,4.6,9 9 9 9 9,5 5 6 5 7,4 4 3 4 2,0.29411764705882354,compromise,2.2857142857142856
8,68,18,3,50,56,65,2,2.2796315700006744,4.95264983000015,0.625,0.6222222222222222,45,0,5.8,9 9 9 9 9,3 4 6 9 6,6 5 3 0 3,0.4,compromise,2.2857142857142856
8,69,19,3,21,21,5,1,3.499814370000422,1.98257665999972,0.125,0.2,5,0,4.5,1 1 1 1 1,0 0 0 0 1,1 1 1 1 0,-0,stay,3
8,70,20,3,20,20,37,1,2.8393364700004895,1.96543118999944,0.75,0.8,5,0,5.5,1 1 1 1 1,1 1 0 1 1,0 0 1 0 0,0,stay,3
8,71,21,3,6,6,8,3,2.6486165700007405,2.05856465999932,0,0,5,1,4.1,1 1 1 1 1,0 0 0 0 0,1 1 1 1 1,0,stay,3
8,72,22,3,20,20,2,1,4.317173370000091,1.85082836000038,0.125,0.2,5,0,6,1 1 1 1 1,0 0 0 1 0,1 1 1 0 1,-0,stay,3
8,73,23,3,27,27,26,1,2.8297127699997873,2.89006075999987,0.25,0.24444444444444444,45,1,5.7,9 9 9 9 9,2 4 4 1 0,7 5 5 8 9,-0,stay,2.2857142857142856
8,74,24,3,72,66,21,1,2.491387270000814,1.67528166000011,0.625,0.6222222222222222,45,1,4.5,9 9 9 9 9,4 4 8 8 4,5 5 1 1 5,0.11764705882352941,compromise,2.2857142857142856
8,75,25,3,20,9,3,3,6.7738705700003266,1.72061855999982,0.125,0.2,5,0,5,1 1 1 1 1,1 0 0 0 0,0 1 1 1 1,0.6470588235294118,compromise,3
9,1,1,1,35,40,50,2,14.057910179999908,10.9817990999995,0.375,0.4,5,0,4,1 1 1 1 1,0 1 1 0 0,1 0 0 1 1,0.3333333333333333,compromise,2.125
9,2,2,1,10,20,28,3,5.446542579999914,7.75436459999992,0.125,0.13333333333333333,45,0,4.9,9 9 9 9 9,1 2 3 0 0,8 7 6 9 9,0.5555555555555556,compromise,2.2857142857142856
9,3,3,1,20,25,35,3,14.175989379999919,6.24352571999998,0.25,0.2,5,0,4.8,1 1 1 1 1,0 0 1 0 0,1 1 0 1 1,0.3333333333333333,compromise,2.125
9,4,4,1,60,60,75,1,8.059287779999522,4.52363693999996,0.625,0.6222222222222222,45,0,5.5,9 9 9 9 9,6 7 4 5 6,3 2 5 4 3,0,stay,2.2857142857142856
9,5,5,1,0,0,1,3,3.5408640799996647,4.68380574000003,0,0,45,1,4.1,9 9 9 9 9,0 0 0 0 0,9 9 9 9 9,0,stay,2.2857142857142856
9,6,6,1,40,40,24,1,9.659443380000539,6.42253924000033,0.375,0.37777777777777777,45,0,5.3,9 9 9 9 9,1 5 2 5 4,8 4 7 4 5,-0,stay,2.2857142857142856
9,7,7,1,30,35,47,2,7.437321279999196,9.94171074000042,0.375,0.37777777777777777,45,0,5.4,9 9 9 9 9,3 2 3 5 4,6 7 6 4 5,0.29411764705882354,compromise,2.2857142857142856
9,8,8,1,10,10,25,1,3.6760203799994997,3.53536904000021,0.125,0.13333333333333333,45,0,4.8,9 9 9 9 9,0 1 1 1 3,9 8 8 8 6,0,stay,2.2857142857142856
9,9,9,1,65,60,2,1,5.944552780000322,8.83407964000025,0.625,0.6222222222222222,45,1,4.1,9 9 9 9 9,5 5 5 8 5,4 4 4 1 4,0.07936507936507936,compromise,2.2857142857142856
9,10,10,1,15,10,1,2,6.878140979999898,2.27591863999987,0.125,0.13333333333333333,45,0,5.4,9 9 9 9 9,1 0 1 2 2,8 9 8 7 7,0.35714285714285715,compromise,2.2857142857142856
9,11,11,1,20,20,36,1,5.37431357999958,5.24235043999988,0.375,0.4,5,0,4.9,1 1 1 1 1,0 1 0 0 1,1 0 1 1 0,0,stay,2.125
9,12,12,1,40,30,25,3,9.199375380000674,6.78989274000014,0.375,0.4,5,0,6,1 1 1 1 1,1 0 1 0 0,0 1 0 1 1,0.6666666666666666,compromise,2.125
9,13,13,1,60,60,3,1,9.395210880000377,4.98300253999969,0.625,0.6,5,1,5,1 1 1 1 1,1 0 1 0 1,0 1 0 1 0,-0,stay,2.125
9,14,14,1,70,80,88,3,7.774416480000582,8.38260663999972,0.75,0.8,5,0,4.2,1 1 1 1 1,0 1 1 1 1,1 0 0 0 0,0.5555555555555556,compromise,2.125
9,15,15,1,70,80,88,3,5.1946159799999805,3.99228393999965,0.75,0.7555555555555555,45,0,4.5,9 9 9 9 9,5 8 9 7 5,4 1 0 2 4,0.5555555555555556,compromise,2.2857142857142856
9,16,16,1,100,95,98,3,2.6744114800003445,5.50496234000093,1,1,5,1,5.4,1 1 1 1 1,1 1 1 1 1,0 0 0 0 0,2.5,copy,2.125
9,17,17,1,35,30,20,2,4.074003680000715,8.54415664000044,0.25,0.24444444444444444,45,0,5.1,9 9 9 9 9,4 1 2 3 1,5 8 7 6 8,0.3333333333333333,compromise,2.2857142857142856
9,18,18,1,10,25,28,3,10.474404079999658,3.24698741999873,0.125,0.13333333333333333,45,0,5,9 9 9 9 9,2 1 1 0 2,7 8 8 9 7,0.8333333333333334,compromise,2.2857142857142856
9,19,19,1,20,5,3,3,16.37038698000015,2.71410874000048,0.125,0.2,5,0,4.5,1 1 1 1 1,0 0 1 0 0,1 1 0 1 1,0.8823529411764706,compromise,2.125
9,20,20,1,80,75,65,2,6.965999780000857,4.64543733999926,0.75,0.8,5,0,4.3,1 1 1 1 1,1 1 1 1 0,0 0 0 0 1,0.3333333333333333,compromise,2.125
9,21,21,1,45,45,43,2,12.598072880000473,2.61522244000116,0.375,0.4,5,1,4.8,1 1 1 1 1,0 1 0 1 0,1 0 1 0 1,-0,stay,2.125
9,22,22,1,55,55,70,1,8.62824018000083,2.95539383999949,0.625,0.6,5,0,4.5,1 1 1 1 1,1 1 0 0 1,0 0 1 1 0,0,stay,2.125
9,23,23,1,65,65,50,1,11.261876880000273,4.97516533999988,0.625,0.6222222222222222,45,0,5.2,9 9 9 9 9,7 7 5 6 3,2 2 4 3 6,-0,stay,2.2857142857142856
9,24,24,1,20,60,80,3,7.178101880000213,13.1480436400007,0.125,0.2,5,1,5.5,1 1 1 1 1,1 0 0 0 0,0 1 1 1 1,0.6666666666666666,compromise,2.125
9,25,25,1,15,25,30,3,4.805024480000611,7.44094314000085,0.25,0.2,5,0,5.1,1 1 1 1 1,0 0 0 0 1,1 1 1 1 0,0.6666666666666666,compromise,2.125
9,26,1,2,65,60,50,3,8.422834530000728,4.08656872999927,0.625,0.6,5,0,4.8,1 1 1 1 1,1 0 1 1 0,0 1 0 0 1,0.3333333333333333,compromise,2.125
9,27,2,2,30,20,12,2,12.632700330000262,5.55359143999976,0.125,0.2,5,0,5.1,1 1 1 1 1,0 0 0 1 0,1 1 1 0 1,0.5555555555555556,compromise,2.125
9,28,3,2,20,10,5,2,7.26723303000017,5.394688639999,0.125,0.2,5,0,5.6,1 1 1 1 1,0 0 1 0 0,1 1 0 1 1,0.6666666666666666,compromise,2.125
9,29,4,2,27,20,10,3,4.191049430000021,7.3155604399999,0.25,0.24444444444444444,45,0,4.4,9 9 9 9 9,1 3 2 3 2,8 6 7 6 7,0.4117647058823529,compromise,2.2857142857142856
9,30,5,2,25,25,9,1,8.611388129999796,4.82578623999962,0.25,0.24444444444444444,45,0,4.4,9 9 9 9 9,3 0 3 4 1,6 9 6 5 8,-0,stay,2.2857142857142856
9,31,6,2,60,70,78,3,19.107854529999713,16.7519193399985,0.625,0.6,5,0,4,1 1 1 1 1,1 1 1 0 0,0 0 0 1 1,0.5555555555555556,compromise,2.125
9,32,7,2,20,20,5,1,6.2243490299997575,5.53674163999949,0.125,0.13333333333333333,45,0,6,9 9 9 9 9,1 0 1 1 3,8 9 8 8 6,-0,stay,2.2857142857142856
9,33,8,2,20,20,35,1,11.763538930000323,4.23838374000024,0.25,0.2,5,0,4.3,1 1 1 1 1,0 0 0 0 1,1 1 1 1 0,0,stay,2.125
9,34,9,2,25,40,72,1,6.35769732999961,6.5475698399996,0.25,0.24444444444444444,45,1,5.5,9 9 9 9 9,3 2 0 4 2,6 7 9 5 7,0.3191489361702128,compromise,2.2857142857142856
9,35,10,2,30,40,45,2,4.704728329999853,5.39361036999981,0.375,0.4,5,0,4.5,1 1 1 1 1,0 1 0 1 0,1 0 1 0 1,0.6666666666666666,compromise,2.125
9,36,11,2,25,20,10,1,3.270169829999759,3.71126473999902,0.125,0.2,5,0,4.1,1 1 1 1 1,0 1 0 0 0,1 0 1 1 1,0.3333333333333333,compromise,2.125
9,37,12,2,45,35,28,3,10.016110529999423,12.2975013399991,0.375,0.37777777777777777,45,0,4.3,9 9 9 9 9,5 3 4 4 1,4 6 5 5 8,0.5882352941176471,compromise,2.2857142857142856
9,38,13,2,65,65,81,1,8.649392629999056,7.00000193999949,0.75,0.7555555555555555,45,0,4.1,9 9 9 9 9,7 8 6 8 5,2 1 3 1 4,0,stay,2.2857142857142856
9,39,14,2,60,60,75,2,5.5993370300002425,4.27919143999861,0.625,0.6222222222222222,45,0,4.2,9 9 9 9 9,5 5 6 6 6,4 4 3 3 3,0,stay,2.2857142857142856
9,40,15,2,60,70,76,2,3.219655429999875,4.89177583999935,0.625,0.6222222222222222,45,0,4.6,9 9 9 9 9,7 3 5 7 6,2 6 4 2 3,0.625,compromise,2.2857142857142856
9,41,16,2,60,65,77,2,4.224207730000671,5.10350323999955,0.625,0.6,5,0,5.7,1 1 1 1 1,1 1 0 1 0,0 0 1 0 1,0.29411764705882354,compromise,2.125
9,42,17,2,40,40,22,1,5.870336429999952,4.37999703999958,0.375,0.4,5,0,4.9,1 1 1 1 1,0 1 0 1 0,1 0 1 0 1,-0,stay,2.125
9,43,18,2,50,60,66,3,2.5159284299998035,7.18827063999925,0.625,0.6222222222222222,45,0,4.3,9 9 9 9 9,5 3 7 7 6,4 6 2 2 3,0.625,compromise,2.2857142857142856
9,44,19,2,70,80,88,3,5.749288130000423,5.85458113999994,0.75,0.7555555555555555,45,0,5.4,9 9 9 9 9,7 8 5 7 7,2 1 4 2 2,0.5555555555555556,compromise,2.2857142857142856
9,45,20,2,10,10,10,3,2.7427994300005594,3.2046344399987,0.125,0.13333333333333333,45,1,5.8,9 9 9 9 9,0 1 3 2 0,9 8 6 7 9,NA,NA,2.2857142857142856
9,46,21,2,70,70,52,1,5.678635330000361,4.96560453999882,0.625,0.6,5,0,5.6,1 1 1 1 1,0 1 1 0 1,1 0 0 1 0,-0,stay,2.125
9,47,22,2,100,100,98,3,3.074200829999427,2.02205743999912,1,1,45,1,4.2,9 9 9 9 9,9 9 9 9 9,0 0 0 0 0,-0,stay,2.2857142857142856
9,48,23,2,20,5,3,3,4.141000730000087,3.81528883999908,0.125,0.2,5,0,4.4,1 1 1 1 1,0 1 0 0 0,1 0 1 1 1,0.8823529411764706,compromise,2.125
9,49,24,2,50,35,3,2,5.566018329999679,7.34216123999977,0.5,0.4888888888888889,45,1,5.3,9 9 9 9 9,3 4 2 8 5,6 5 7 1 4,0.3191489361702128,compromise,2.2857142857142856
9,50,25,2,80,80,65,1,4.815923029999794,4.60931833999894,0.75,0.8,5,0,4.1,1 1 1 1 1,1 1 1 1 0,0 0 0 0 1,-0,stay,2.125
9,51,1,3,20,25,35,2,5.865894540000227,4.07111063999946,0.25,0.2,5,0,4,1 1 1 1 1,0 0 1 0 0,1 1 0 1 1,0.3333333333333333,compromise,2.125
9,52,2,3,60,65,76,2,8.337107039999864,5.61046822000026,0.625,0.6,5,0,4.6,1 1 1 1 1,0 0 1 1 1,1 1 0 0 0,0.3125,compromise,2.125
9,53,3,3,20,35,38,3,3.336520240000027,4.54490392000025,0.375,0.4,5,0,5.9,1 1 1 1 1,0 0 1 0 1,1 1 0 1 0,0.8333333333333334,compromise,2.125
9,54,4,3,30,40,46,2,8.546681640000315,6.4173696200005,0.375,0.37777777777777777,45,0,5.4,9 9 9 9 9,2 3 2 5 5,7 6 7 4 4,0.625,compromise,2.2857142857142856
9,55,5,3,65,50,20,2,6.1507165399998485,9.49250711999957,0.75,0.7555555555555555,45,1,4.2,9 9 9 9 9,6 7 8 7 6,3 2 1 2 3,0.3333333333333333,compromise,2.2857142857142856
9,56,6,3,75,85,90,3,12.403656140000749,5.20835551999971,0.75,0.8,5,0,4,1 1 1 1 1,1 0 1 1 1,0 1 0 0 0,0.6666666666666666,compromise,2.125
9,57,7,3,85,80,70,2,4.274172440000257,5.74604671999987,0.75,0.7555555555555555,45,0,4.1,9 9 9 9 9,6 7 8 5 8,3 2 1 4 1,0.3333333333333333,compromise,2.2857142857142856
9,58,8,3,20,25,35,3,5.688190339999892,4.52734185999998,0.25,0.24444444444444444,45,0,5.4,9 9 9 9 9,3 0 1 5 2,6 9 8 4 7,0.3333333333333333,compromise,2.2857142857142856
9,59,9,3,65,60,50,3,5.427741939999578,2.82300722000036,0.625,0.6222222222222222,45,0,4.1,9 9 9 9 9,5 5 7 7 4,4 4 2 2 5,0.3333333333333333,compromise,2.2857142857142856
9,60,10,3,20,40,67,1,4.7946554399995875,9.75714181999956,0.25,0.2,5,1,5.7,1 1 1 1 1,0 1 0 0 0,1 0 1 1 1,0.425531914893617,compromise,2.125
9,61,11,3,35,35,36,2,3.8673415399998703,4.15809461999925,0.375,0.37777777777777777,45,1,5.2,9 9 9 9 9,3 3 3 5 3,6 6 6 4 6,0,stay,2.2857142857142856
9,62,12,3,80,75,63,2,5.215982940000686,6.57131112000025,0.75,0.8,5,0,5,1 1 1 1 1,1 0 1 1 1,0 1 0 0 0,0.29411764705882354,compromise,2.125
9,63,13,3,25,20,9,1,6.836325940000279,3.40822551999918,0.25,0.2,5,0,5.3,1 1 1 1 1,1 0 0 0 0,0 1 1 1 1,0.3125,compromise,2.125
9,64,14,3,0,0,1,3,4.54094374000033,1.78364742000031,0,0,5,1,4.1,1 1 1 1 1,0 0 0 0 0,1 1 1 1 1,0,stay,2.125
9,65,15,3,10,15,25,2,2.7740607400000954,3.24337295999976,0.125,0.13333333333333333,45,0,5.3,9 9 9 9 9,0 2 1 1 2,9 7 8 8 7,0.3333333333333333,compromise,2.2857142857142856
9,66,16,3,95,95,95,2,5.703557139999248,5.20646481999938,0.75,0.8,5,1,5.5,1 1 1 1 1,0 1 1 1 1,1 0 0 0 0,NA,NA,2.125
9,67,17,3,40,30,23,3,7.396557539999776,3.10870872000032,0.375,0.37777777777777777,45,0,4.7,9 9 9 9 9,4 4 0 4 5,5 5 9 5 4,0.5882352941176471,compromise,2.2857142857142856
9,68,18,3,35,35,50,1,3.4658757400002287,4.22658801999933,0.375,0.37777777777777777,45,0,5.6,9 9 9 9 9,4 2 3 6 2,5 7 6 3 7,0,stay,2.2857142857142856
9,69,19,3,65,65,81,1,5.266007240000363,2.62484591999964,0.75,0.7555555555555555,45,0,4.2,9 9 9 9 9,7 7 8 6 6,2 2 1 3 3,0,stay,2.2857142857142856
9,70,20,3,25,35,42,2,4.590585339999052,3.53849201999947,0.25,0.2,5,0,5,1 1 1 1 1,1 0 0 0 0,0 1 1 1 1,0.5882352941176471,compromise,2.125
9,71,21,3,80,80,63,1,6.645331839999926,4.37425622000046,0.75,0.8,5,0,5.4,1 1 1 1 1,1 1 1 1 0,0 0 0 0 1,-0,stay,2.125
9,72,22,3,20,25,37,2,7.878589040000406,2.4865132599989,0.25,0.24444444444444444,45,0,5.2,9 9 9 9 9,2 2 2 1 4,7 7 7 8 5,0.29411764705882354,compromise,2.2857142857142856
9,73,23,3,70,80,85,2,5.270304640000177,10.0365010199994,0.75,0.7555555555555555,45,0,4.6,9 9 9 9 9,7 6 6 8 7,2 3 3 1 2,0.6666666666666666,compromise,2.2857142857142856
9,74,24,3,25,25,8,1,6.399134340000273,2.2743205200004,0.125,0.2,5,0,5.6,1 1 1 1 1,0 0 0 1 0,1 1 1 0 1,-0,stay,2.125
9,75,25,3,20,20,35,1,7.615987240000322,2.42606152000008,0.25,0.24444444444444444,45,0,4.9,9 9 9 9 9,3 2 2 3 1,6 7 7 6 8,0,stay,2.2857142857142856
13,1,1,1,100,100,99,3,3.320343760000469,3.13591386000098,1,1,5,1,4.1,1 1 1 1 1,1 1 1 1 1,0 0 0 0 0,-0,stay,2.25
13,2,2,1,4,4,3,3,7.19083406000027,2.36439428000085,0.125,0.2,5,1,4.5,1 1 1 1 1,0 0 0 1 0,1 1 1 0 1,-0,stay,2.25
13,3,3,1,30,30,32,2,8.31113206000009,4.66364768000039,0.375,0.4,5,1,5.2,1 1 1 1 1,0 0 0 1 1,1 1 1 0 0,0,stay,2.25
13,4,4,1,65,50,16,1,9.746735859999717,4.8534958199989,0.625,0.6222222222222222,45,1,5.7,9 9 9 9 9,5 7 5 6 5,4 2 4 3 4,0.30612244897959184,compromise,2.2857142857142856
13,5,5,1,59,68,76,1,6.4575477600010345,7.73272657999951,0.625,0.6222222222222222,45,0,5.2,9 9 9 9 9,5 5 5 5 8,4 4 4 4 1,0.5294117647058824,compromise,2.2857142857142856
13,6,6,1,8,15,24,1,6.586849060000532,4.57687661999989,0.125,0.13333333333333333,45,0,4.6,9 9 9 9 9,0 1 2 1 2,9 8 7 8 7,0.4375,compromise,2.2857142857142856
13,7,7,1,10,20,25,3,5.649384160000409,8.38027148000037,0.125,0.13333333333333333,45,0,5.6,9 9 9 9 9,0 2 1 3 0,9 7 8 6 9,0.6666666666666666,compromise,2.2857142857142856
13,8,8,1,18,8,1,3,9.303818160000446,5.69893698000033,0.125,0.13333333333333333,45,0,4.9,9 9 9 9 9,0 1 1 3 1,9 8 8 6 8,0.5882352941176471,compromise,2.2857142857142856
13,9,9,1,10,15,25,2,5.270562260001498,5.01351708000129,0.125,0.13333333333333333,45,0,4,9 9 9 9 9,1 1 0 2 2,8 8 9 7 7,0.3333333333333333,compromise,2.2857142857142856
13,10,10,1,12,28,30,3,8.378314160000627,9.11583638000047,0.25,0.2,5,0,5.6,1 1 1 1 1,0 0 1 0 0,1 1 0 1 1,0.8888888888888888,compromise,2.25
13,11,11,1,15,20,30,1,3.8827027600000292,2.7129854800005,0.375,0.37777777777777777,45,0,4.6,9 9 9 9 9,4 0 5 5 3,5 9 4 4 6,0.3333333333333333,compromise,2.2857142857142856
13,12,12,1,45,35,29,3,7.621901760000583,10.8664136799998,0.375,0.4,5,0,4.3,1 1 1 1 1,1 1 0 0 0,0 0 1 1 1,0.625,compromise,2.25
13,13,13,1,45,43,30,1,7.166038260000278,7.52826402000028,0.375,0.4,5,0,4.1,1 1 1 1 1,1 0 1 0 0,0 1 0 1 1,0.13333333333333333,compromise,2.25
13,14,14,1,15,22,30,2,5.9076788600004875,10.5187091200005,0.25,0.24444444444444444,45,0,5,9 9 9 9 9,1 5 3 1 1,8 4 6 8 8,0.4666666666666667,compromise,2.2857142857142856
13,15,15,1,55,62,73,1,5.832722860001013,7.69909138000003,0.625,0.6,5,0,4.3,1 1 1 1 1,0 1 1 0 1,1 0 0 1 0,0.3888888888888889,compromise,2.25
13,16,16,1,10,17,25,3,11.067494760000045,12.0154601800004,0.25,0.2,5,0,5,1 1 1 1 1,0 0 0 1 0,1 1 1 0 1,0.4666666666666667,compromise,2.25
13,17,17,1,40,33,23,2,4.971750960000463,7.78052571999979,0.375,0.37777777777777777,45,0,4.3,9 9 9 9 9,2 3 5 3 4,7 6 4 6 5,0.4117647058823529,compromise,2.2857142857142856
13,18,18,1,90,82,75,3,8.366200560000834,10.4482025800007,0.75,0.8,5,0,5.6,1 1 1 1 1,1 1 1 1 0,0 0 0 0 1,0.5333333333333333,compromise,2.25
13,19,19,1,60,60,62,1,6.800561360000756,4.41579208000076,0.625,0.6,5,1,5.2,1 1 1 1 1,1 1 0 0 1,0 0 1 1 0,0,stay,2.25
13,20,20,1,60,66,76,2,5.636447060001046,6.41210498000055,0.75,0.8,5,0,4.7,1 1 1 1 1,0 1 1 1 1,1 0 0 0 0,0.375,compromise,2.25
13,21,21,1,40,33,25,2,7.998833059997196,8.56308721999812,0.375,0.4,5,0,4.6,1 1 1 1 1,1 1 0 0 0,0 0 1 1 1,0.4666666666666667,compromise,2.25
13,22,22,1,15,6,1,3,9.616163259999666,6.72895297999821,0.125,0.2,5,0,4.7,1 1 1 1 1,1 0 0 0 0,0 1 1 1 1,0.6428571428571429,compromise,2.25
13,23,23,1,0,1,2,3,7.6051416600002995,2.31200512000032,0,0,45,1,4.2,9 9 9 9 9,0 0 0 0 0,9 9 9 9 9,0.5,compromise,2.2857142857142856
13,24,24,1,63,68,80,1,5.899330860000191,8.65138017999925,0.625,0.6222222222222222,45,0,4.1,9 9 9 9 9,4 6 8 5 5,5 3 1 4 4,0.29411764705882354,compromise,2.2857142857142856
13,25,25,1,75,65,60,3,7.357654460000049,7.75948022000011,0.75,0.7555555555555555,45,0,4.3,9 9 9 9 9,7 9 5 6 7,2 0 4 3 2,0.6666666666666666,compromise,2.2857142857142856
13,26,1,2,80,74,62,1,6.340787959999943,8.12219946000005,0.75,0.7555555555555555,45,0,5.3,9 9 9 9 9,3 7 8 8 8,6 2 1 1 1,0.3333333333333333,compromise,2.2857142857142856
13,27,2,2,5,5,6,3,7.940641659999528,3.19343608000054,0.125,0.13333333333333333,45,1,5,9 9 9 9 9,3 0 1 2 0,6 9 8 7 9,0,stay,2.2857142857142856
13,28,3,2,70,80,85,3,5.082378360000803,4.33690968000155,0.75,0.7555555555555555,45,0,4,9 9 9 9 9,6 5 9 7 7,3 4 0 2 2,0.6666666666666666,compromise,2.2857142857142856
13,29,4,2,88,80,70,1,6.438197760000548,10.7169839800008,0.75,0.8,5,0,5.9,1 1 1 1 1,1 1 0 1 1,0 0 1 0 0,0.4444444444444444,compromise,2.25
13,30,5,2,12,20,29,1,5.3734851600002,7.3650709800022,0.125,0.2,5,0,4.1,1 1 1 1 1,1 0 0 0 0,0 1 1 1 1,0.47058823529411764,compromise,2.25
13,31,6,2,12,22,27,2,4.174191359999895,7.17305283999849,0.125,0.2,5,0,4.2,1 1 1 1 1,0 0 1 0 0,1 1 0 1 1,0.6666666666666666,compromise,2.25
13,32,7,2,14,20,31,1,4.882314460002817,5.82793528000184,0.25,0.24444444444444444,45,0,5.8,9 9 9 9 9,1 2 3 3 2,8 7 6 6 7,0.35294117647058826,compromise,2.2857142857142856
13,33,8,2,75,66,58,2,5.886285059999864,6.20285198000238,0.625,0.6222222222222222,45,0,4.7,9 9 9 9 9,6 7 3 5 7,3 2 6 4 2,0.5294117647058824,compromise,2.2857142857142856
13,34,9,2,15,27,31,3,2.374085660001583,3.23758438000186,0.25,0.24444444444444444,45,0,4.2,9 9 9 9 9,3 0 4 1 3,6 9 5 8 6,0.75,compromise,2.2857142857142856
13,35,10,2,100,99,98,3,2.474113660000512,2.95726518000083,1,1,45,1,5,9 9 9 9 9,9 9 9 9 9,0 0 0 0 0,0.5,compromise,2.2857142857142856
13,36,11,2,44,35,26,1,5.470368160000362,3.34698858000047,0.375,0.4,5,0,5.9,1 1 1 1 1,1 0 0 0 1,0 1 1 1 0,0.5,compromise,2.25
13,37,12,2,50,51,52,2,2.311453160002202,5.25144327999988,0.5,0.4888888888888889,45,1,5.1,9 9 9 9 9,6 4 4 5 3,3 5 5 4 6,0.5,compromise,2.2857142857142856
13,38,13,2,10,15,25,1,6.107167660000414,3.80364757999996,0.125,0.13333333333333333,45,0,6,9 9 9 9 9,3 0 0 2 1,6 9 9 7 8,0.3333333333333333,compromise,2.2857142857142856
13,39,14,2,43,38,28,2,3.924000660001184,6.70329788000163,0.375,0.4,5,0,4.8,1 1 1 1 1,0 1 0 1 0,1 0 1 0 1,0.3333333333333333,compromise,2.25
13,40,15,2,50,64,67,3,3.932363660000192,5.62809641999957,0.625,0.6,5,0,4.9,1 1 1 1 1,0 1 1 1 0,1 0 0 0 1,0.8235294117647058,compromise,2.25
13,41,16,2,15,15,16,1,5.644973660000687,2.32984188000228,0.25,0.24444444444444444,45,1,4.6,9 9 9 9 9,4 2 1 2 2,5 7 8 7 7,0,stay,2.2857142857142856
13,42,17,2,10,16,26,1,5.621448360003342,6.38646618000166,0.25,0.2,5,0,5.9,1 1 1 1 1,0 1 0 0 0,1 0 1 1 1,0.375,compromise,2.25
13,43,18,2,80,70,65,3,5.352660059999835,10.0972573800027,0.625,0.6,5,0,5.8,1 1 1 1 1,0 0 1 1 1,1 1 0 0 0,0.6666666666666666,compromise,2.25
13,44,19,2,60,68,78,2,5.22781316000146,4.55147508000118,0.625,0.6,5,0,4.3,1 1 1 1 1,0 1 0 1 1,1 0 1 0 0,0.4444444444444444,compromise,2.25
13,45,20,2,40,27,24,3,9.103253060000497,6.3655752800023,0.125,0.2,5,0,5.9,1 1 1 1 1,0 0 1 0 0,1 1 0 1 1,0.8125,compromise,2.25
13,46,21,2,10,14,25,2,5.411663760001829,3.3496786800024,0.125,0.2,5,0,5.5,1 1 1 1 1,0 0 0 0 1,1 1 1 1 0,0.26666666666666666,compromise,2.25
13,47,22,2,75,70,60,2,5.090545760000168,2.87618018000103,0.625,0.6222222222222222,45,0,4.6,9 9 9 9 9,7 4 6 3 8,2 5 3 6 1,0.3333333333333333,compromise,2.2857142857142856
13,48,23,2,80,68,62,3,6.299187860000529,4.97276797999984,0.625,0.6222222222222222,45,0,5,9 9 9 9 9,7 5 6 5 5,2 4 3 4 4,0.6666666666666666,compromise,2.2857142857142856
13,49,24,2,60,62,76,1,4.540572260000772,4.632207380002,0.625,0.6,5,0,5.5,1 1 1 1 1,0 0 1 1 1,1 1 0 0 0,0.125,compromise,2.25
13,50,25,2,14,22,30,3,2.9657933599992248,5.70800267999948,0.375,0.37777777777777777,45,0,5.7,9 9 9 9 9,3 3 6 4 1,6 6 3 5 8,0.5,compromise,2.2857142857142856
13,51,1,3,90,80,75,3,4.555058750000171,3.29684935000114,0.75,0.8,5,0,4.6,1 1 1 1 1,1 0 1 1 1,0 1 0 0 0,0.6666666666666666,compromise,2.25
13,52,2,3,10,17,26,2,6.349226350001118,2.74871135000103,0.25,0.2,5,0,4.8,1 1 1 1 1,0 0 1 0 0,1 1 0 1 1,0.4375,compromise,2.25
13,53,3,3,80,80,80,2,3.5285993500019686,2.2763672000001,0.75,0.7555555555555555,45,1,5.5,9 9 9 9 9,8 6 4 9 7,1 3 5 0 2,NA,NA,2.2857142857142856
13,54,4,3,35,50,77,2,6.966015349998997,6.1127288500029,0.375,0.37777777777777777,45,1,4.2,9 9 9 9 9,4 2 3 3 5,5 7 6 6 4,0.35714285714285715,compromise,2.2857142857142856
13,55,5,3,30,40,46,3,5.628267249998316,3.07303384999977,0.375,0.4,5,0,5.8,1 1 1 1 1,1 0 0 0 1,0 1 1 1 0,0.625,compromise,2.25
13,56,6,3,10,14,26,2,5.507375250001132,3.33420630000182,0.25,0.2,5,0,5.2,1 1 1 1 1,0 1 0 0 0,1 0 1 1 1,0.25,compromise,2.25
13,57,7,3,10,18,28,2,2.2781614499999705,4.07189310000103,0.125,0.13333333333333333,45,0,4.6,9 9 9 9 9,1 2 2 0 1,8 7 7 9 8,0.4444444444444444,compromise,2.2857142857142856
13,58,8,3,1,2,3,3,3.4612788499962335,3.83458755000174,0,0,5,1,4.4,1 1 1 1 1,0 0 0 0 0,1 1 1 1 1,0.5,compromise,2.25
13,59,9,3,38,32,20,1,2.9949230499987607,3.91128390000085,0.25,0.24444444444444444,45,0,4.2,9 9 9 9 9,2 0 1 3 5,7 9 8 6 4,0.3333333333333333,compromise,2.2857142857142856
13,60,10,3,35,35,37,1,2.2116286499986018,2.84586305000084,0.25,0.2,5,1,5.5,1 1 1 1 1,1 0 0 0 0,0 1 1 1 1,0,stay,2.25
13,61,11,3,20,30,37,3,2.429591549998804,3.90532320000057,0.25,0.24444444444444444,45,0,5.8,9 9 9 9 9,3 1 2 3 2,6 8 7 6 7,0.5882352941176471,compromise,2.2857142857142856
13,62,12,3,90,90,88,2,3.8164947499990376,3.59903595000287,0.75,0.8,5,1,4.4,1 1 1 1 1,1 1 1 1 0,0 0 0 0 1,-0,stay,2.25
13,63,13,3,30,40,48,3,5.865817149997383,3.55580284999814,0.375,0.37777777777777777,45,0,5.4,9 9 9 9 9,3 5 3 3 3,6 4 6 6 6,0.5555555555555556,compromise,2.2857142857142856
13,64,14,3,10,14,28,1,6.299203850001504,1.66107040000134,0.125,0.2,5,0,5.9,1 1 1 1 1,1 0 0 0 0,0 1 1 1 1,0.2222222222222222,compromise,2.25
13,65,15,3,35,42,50,1,2.0282416500012914,4.91548900000089,0.375,0.37777777777777777,45,0,5.7,9 9 9 9 9,1 5 4 2 5,8 4 5 7 4,0.4666666666666667,compromise,2.2857142857142856
13,66,16,3,40,35,25,2,3.5742375499994523,4.48906005000208,0.375,0.37777777777777777,45,0,4.5,9 9 9 9 9,5 2 5 3 2,4 7 4 6 7,0.3333333333333333,compromise,2.2857142857142856
13,67,17,3,10,13,27,1,3.957549550001204,1.61380975000247,0.25,0.2,5,0,5.3,1 1 1 1 1,0 0 0 0 1,1 1 1 1 0,0.17647058823529413,compromise,2.25
13,68,18,3,85,80,70,2,2.7909032500010653,3.32537755000158,0.75,0.7555555555555555,45,0,5,9 9 9 9 9,7 5 8 7 7,2 4 1 2 2,0.3333333333333333,compromise,2.2857142857142856
13,69,19,3,10,13,25,2,2.007545249998657,2.57341235000058,0.25,0.24444444444444444,45,0,5,9 9 9 9 9,3 3 1 3 1,6 6 8 6 8,0.2,compromise,2.2857142857142856
13,70,20,3,90,86,73,2,2.8121004500026174,2.64968204999968,0.75,0.8,5,0,4.3,1 1 1 1 1,1 1 1 1 0,0 0 0 0 1,0.23529411764705882,compromise,2.25
13,71,21,3,90,83,74,2,1.9300993499982724,3.63877470000079,0.75,0.7555555555555555,45,0,5.4,9 9 9 9 9,7 4 7 7 9,2 5 2 2 0,0.4375,compromise,2.2857142857142856
13,72,22,3,90,87,72,1,2.1989931499992963,2.91746059999969,0.75,0.7555555555555555,45,0,4.9,9 9 9 9 9,7 6 8 8 5,2 3 1 1 4,0.16666666666666666,compromise,2.2857142857142856
13,73,23,3,70,63,55,2,3.11688045000119,2.16245555000205,0.625,0.6,5,0,4.7,1 1 1 1 1,0 1 1 1 0,1 0 0 0 1,0.4666666666666667,compromise,2.25
13,74,24,3,90,87,73,1,3.5158546499988006,2.47979145000318,0.75,0.8,5,0,4.8,1 1 1 1 1,0 1 1 1 1,1 0 0 0 0,0.17647058823529413,compromise,2.25
13,75,25,3,83,70,66,3,2.790924349998022,2.17144490000101,0.625,0.6222222222222222,45,0,4.7,9 9 9 9 9,7 4 5 5 7,2 5 4 4 2,0.7647058823529411,compromise,2.2857142857142856
14,1,1,1,0,0,1,3,6.111350449999918,73.30158785,0,0,5,1,5.9,1 1 1 1 1,0 0 0 0 0,1 1 1 1 1,0,stay,2.25
14,2,2,1,50,50,49,2,7.132741850000457,5.66732104999937,0.5,0.4888888888888889,45,1,5.9,9 9 9 9 9,4 6 5 4 3,5 3 4 5 6,-0,stay,2.4285714285714284
14,3,3,1,43,35,25,2,9.086973449999732,7.39171739999938,0.375,0.37777777777777777,45,0,5,9 9 9 9 9,3 2 4 5 3,6 7 5 4 6,0.4444444444444444,compromise,2.4285714285714284
14,4,4,1,80,73,65,3,6.9325104499998815,10.5865615000002,0.75,0.7555555555555555,45,0,4.8,9 9 9 9 9,6 7 7 8 6,3 2 2 1 3,0.4666666666666667,compromise,2.4285714285714284
14,5,5,1,55,60,70,1,5.728225750000092,7.03167220000023,0.625,0.6222222222222222,45,0,4.4,9 9 9 9 9,5 8 5 5 5,4 1 4 4 4,0.3333333333333333,compromise,2.4285714285714284
14,6,6,1,40,35,22,1,3.9000849500002914,8.1698322999996,0.375,0.37777777777777777,45,0,5.7,9 9 9 9 9,4 6 3 2 2,5 3 6 7 7,0.2777777777777778,compromise,2.4285714285714284
14,7,7,1,80,70,65,3,3.999411549999877,7.85149209999963,0.75,0.8,5,0,4.6,1 1 1 1 1,1 1 1 1 0,0 0 0 0 1,0.6666666666666666,compromise,2.25
14,8,8,1,60,65,75,1,6.174107950000234,5.44672649999984,0.625,0.6222222222222222,45,0,4.6,9 9 9 9 9,5 5 6 7 5,4 4 3 2 4,0.3333333333333333,compromise,2.4285714285714284
14,9,9,1,15,15,1,1,5.516114849999667,4.31129370000008,0.125,0.13333333333333333,45,0,5,9 9 9 9 9,1 3 0 0 2,8 6 9 9 7,-0,stay,2.4285714285714284
14,10,10,1,65,57,50,3,5.5777946500002145,8.40879499999983,0.625,0.6222222222222222,45,0,4.2,9 9 9 9 9,6 4 7 7 4,3 5 2 2 5,0.5333333333333333,compromise,2.4285714285714284
14,11,11,1,80,72,62,1,11.40726684999936,8.00349179999921,0.75,0.8,5,0,4.9,1 1 1 1 1,1 1 1 1 0,0 0 0 0 1,0.4444444444444444,compromise,2.25
14,12,12,1,20,30,35,3,8.707400049999706,7.09188839999842,0.25,0.2,5,0,5.7,1 1 1 1 1,1 0 0 0 0,0 1 1 1 1,0.6666666666666666,compromise,2.25
14,13,13,1,100,99,98,3,3.0407497499991223,5.58329880000019,1,1,5,1,4.4,1 1 1 1 1,1 1 1 1 1,0 0 0 0 0,0.5,compromise,2.25
14,14,14,1,40,39,38,2,8.178249849999702,3.93785599999956,0.375,0.4,5,1,4.6,1 1 1 1 1,1 1 0 0 0,0 0 1 1 1,0.5,compromise,2.25
14,15,15,1,60,72,77,3,3.5162477499998204,8.79325639999843,0.625,0.6,5,0,4.6,1 1 1 1 1,1 0 0 1 1,0 1 1 0 0,0.7058823529411765,compromise,2.25
14,16,16,1,45,46,47,2,3.8669223500000953,6.01100489999953,0.375,0.37777777777777777,45,1,4.7,9 9 9 9 9,5 4 3 0 5,4 5 6 9 4,0.5,compromise,2.4285714285714284
14,17,17,1,20,9,3,3,2.7535732499991354,9.00316229999953,0.125,0.2,5,0,4.6,1 1 1 1 1,0 0 0 1 0,1 1 1 0 1,0.6470588235294118,compromise,2.25
14,18,18,1,30,23,15,3,4.974233049999384,8.99171939999906,0.25,0.24444444444444444,45,0,4.7,9 9 9 9 9,4 1 3 0 3,5 8 6 9 6,0.4666666666666667,compromise,2.4285714285714284
14,19,19,1,20,25,35,2,5.113536649999332,5.48640529999921,0.25,0.24444444444444444,45,0,5.1,9 9 9 9 9,2 2 2 4 1,7 7 7 5 8,0.3333333333333333,compromise,2.4285714285714284
14,20,20,1,60,50,15,1,5.411654550000094,11.5014872000002,0.625,0.6,5,1,4.8,1 1 1 1 1,1 1 0 0 1,0 0 1 1 0,0.2222222222222222,compromise,2.25
14,21,21,1,80,71,62,2,3.965797449999627,9.8379001000003,0.75,0.8,5,0,4.6,1 1 1 1 1,1 1 1 0 1,0 0 0 1 0,0.5,compromise,2.25
14,22,22,1,15,12,1,2,2.8038497500010635,7.19334929999968,0.125,0.13333333333333333,45,0,5.4,9 9 9 9 9,0 1 2 3 0,9 8 7 6 9,0.21428571428571427,compromise,2.4285714285714284
14,23,23,1,20,13,5,1,4.595261149999715,8.43934889999946,0.125,0.2,5,0,5.3,1 1 1 1 1,0 1 0 0 0,1 0 1 1 1,0.4666666666666667,compromise,2.25
14,24,24,1,40,32,24,3,5.45476305000102,10.7428966999996,0.375,0.37777777777777777,45,0,5.1,9 9 9 9 9,5 4 2 4 2,4 5 7 5 7,0.5,compromise,2.4285714285714284
14,25,25,1,40,32,25,2,4.694785050000064,4.86045740000009,0.375,0.4,5,0,5.6,1 1 1 1 1,1 0 1 0 0,0 1 0 1 1,0.5333333333333333,compromise,2.25
14,26,1,2,70,77,86,2,4.349489579999499,7.42028409999966,0.75,0.7555555555555555,45,0,5.3,9 9 9 9 9,6 6 7 8 7,3 3 2 1 2,0.4375,compromise,2.4285714285714284
14,27,2,2,34,45,50,3,5.929947679999714,10.0883915400009,0.375,0.37777777777777777,45,0,5.7,9 9 9 9 9,5 3 3 3 3,4 6 6 6 6,0.6875,compromise,2.4285714285714284
14,28,3,2,20,15,5,1,1.9686044800000673,2.29258723999919,0.125,0.2,5,0,5.4,1 1 1 1 1,0 0 0 1 0,1 1 1 0 1,0.3333333333333333,compromise,2.25
14,29,4,2,40,32,23,1,6.782696880000003,8.52941623999959,0.375,0.4,5,0,4.3,1 1 1 1 1,0 0 1 1 0,1 1 0 0 1,0.47058823529411764,compromise,2.25
14,30,5,2,20,25,37,2,5.045148379999773,7.98812314000043,0.25,0.24444444444444444,45,0,5.6,9 9 9 9 9,2 2 2 2 3,7 7 7 7 6,0.29411764705882354,compromise,2.4285714285714284
14,31,6,2,50,45,3,1,3.620420379999814,5.58142531999874,0.625,0.6222222222222222,45,1,5.5,9 9 9 9 9,3 7 4 8 6,6 2 5 1 3,0.10638297872340426,compromise,2.4285714285714284
14,32,7,2,40,32,22,2,4.266089980000288,12.6133650399997,0.375,0.4,5,0,4.6,1 1 1 1 1,1 0 0 1 0,0 1 1 0 1,0.4444444444444444,compromise,2.25
14,33,8,2,60,68,78,2,1.8327092800009268,6.28208444000029,0.625,0.6,5,0,5.4,1 1 1 1 1,1 0 0 1 1,0 1 1 0 0,0.4444444444444444,compromise,2.25
14,34,9,2,15,15,1,2,4.249131780000425,8.29735861999961,0.125,0.13333333333333333,45,0,5.3,9 9 9 9 9,2 0 1 2 1,7 9 8 7 8,-0,stay,2.4285714285714284
14,35,10,2,40,35,25,3,5.374263779999637,2.80429264000031,0.25,0.24444444444444444,45,0,4.9,9 9 9 9 9,2 3 2 1 3,7 6 7 8 6,0.3333333333333333,compromise,2.4285714285714284
14,36,11,2,55,60,70,2,3.333846679999624,3.97887614000047,0.625,0.6222222222222222,45,0,6,9 9 9 9 9,7 6 6 5 4,2 3 3 4 5,0.3333333333333333,compromise,2.4285714285714284
14,37,12,2,58,65,73,3,3.2576099799989606,3.98040993999984,0.625,0.6222222222222222,45,0,5.2,9 9 9 9 9,6 5 4 6 7,3 4 5 3 2,0.4666666666666667,compromise,2.4285714285714284
14,38,13,2,20,12,3,2,2.494900979999329,7.33996884000044,0.125,0.2,5,0,5.1,1 1 1 1 1,0 1 0 0 0,1 0 1 1 1,0.47058823529411764,compromise,2.25
14,39,14,2,80,70,62,3,4.970432479999545,7.04583613999966,0.75,0.8,5,0,4.4,1 1 1 1 1,1 1 0 1 1,0 0 1 0 0,0.5555555555555556,compromise,2.25
14,40,15,2,60,68,76,1,4.44259128000067,8.56511854000019,0.625,0.6,5,0,5.2,1 1 1 1 1,1 0 0 1 1,0 1 1 0 0,0.5,compromise,2.25
14,41,16,2,20,30,38,2,4.74670677999984,8.08914263999941,0.25,0.2,5,0,5.6,1 1 1 1 1,1 0 0 0 0,0 1 1 1 1,0.5555555555555556,compromise,2.25
14,42,17,2,80,77,63,1,3.5427383800006282,9.09519323999939,0.75,0.7555555555555555,45,0,4.8,9 9 9 9 9,6 8 6 7 7,3 1 3 2 2,0.17647058823529413,compromise,2.4285714285714284
14,43,18,2,40,30,25,3,3.3076505800008817,4.0401087399996,0.375,0.4,5,0,4.2,1 1 1 1 1,0 1 0 1 0,1 0 1 0 1,0.6666666666666666,compromise,2.25
14,44,19,2,60,68,76,1,3.616119580000486,8.72840173999975,0.625,0.6,5,0,4.6,1 1 1 1 1,1 0 1 1 0,0 1 0 0 1,0.5,compromise,2.25
14,45,20,2,80,50,25,2,1.6035115799995765,12.2975172400002,0.75,0.8,5,1,5.5,1 1 1 1 1,1 0 1 1 1,0 1 0 0 0,0.5454545454545454,compromise,2.25
14,46,21,2,20,29,38,1,4.142525279999063,3.5810069399995,0.25,0.2,5,0,5,1 1 1 1 1,0 0 0 0 1,1 1 1 1 0,0.5,compromise,2.25
14,47,22,2,81,72,64,2,2.416073380000853,12.9461289399987,0.75,0.8,5,0,5.6,1 1 1 1 1,1 1 0 1 1,0 0 1 0 0,0.5294117647058824,compromise,2.25
14,48,23,2,0,0,1,3,3.7760156799995457,4.86799853999946,0,0,45,1,5,9 9 9 9 9,0 0 0 0 0,9 9 9 9 9,0,stay,2.4285714285714284
14,49,24,2,15,18,30,1,3.5993488800004343,11.4292770399998,0.25,0.24444444444444444,45,0,4.5,9 9 9 9 9,3 3 2 1 2,6 6 7 8 7,0.2,compromise,2.4285714285714284
14,50,25,2,75,75,74,2,3.571677779998936,6.16408763999971,0.75,0.7555555555555555,45,1,4.1,9 9 9 9 9,7 7 5 9 6,2 2 4 0 3,-0,stay,2.4285714285714284
14,51,1,3,15,10,1,3,1.986986469999465,7.84685247000016,0.125,0.13333333333333333,45,0,6,9 9 9 9 9,1 0 2 1 2,8 9 7 8 7,0.35714285714285715,compromise,2.4285714285714284
14,52,2,3,40,35,23,1,3.426154370000404,3.41046826000002,0.375,0.37777777777777777,45,0,5.6,9 9 9 9 9,5 3 4 3 2,4 6 5 6 7,0.29411764705882354,compromise,2.4285714285714284
14,53,3,3,75,83,90,3,4.361715770000046,8.87828775999969,0.75,0.7555555555555555,45,0,5.6,9 9 9 9 9,7 8 5 9 5,2 1 4 0 4,0.5333333333333333,compromise,2.4285714285714284
14,54,4,3,40,31,22,3,4.0093122699991,5.51110675999917,0.375,0.4,5,0,5.2,1 1 1 1 1,1 1 0 0 0,0 0 1 1 1,0.5,compromise,2.25
14,55,5,3,20,12,5,3,2.834000869999727,11.3588960599991,0.125,0.2,5,0,4.7,1 1 1 1 1,0 0 0 0 1,1 1 1 1 0,0.5333333333333333,compromise,2.25
14,56,6,3,35,42,50,2,3.357772970000042,10.4402004599988,0.375,0.37777777777777777,45,0,4.2,9 9 9 9 9,6 3 2 4 2,3 6 7 5 7,0.4666666666666667,compromise,2.4285714285714284
14,57,7,3,20,20,19,3,5.7702256700004,3.02812865999931,0.125,0.2,5,1,4,1 1 1 1 1,0 0 0 0 1,1 1 1 1 0,-0,stay,2.25
14,58,8,3,15,12,1,1,3.589740669999628,4.96274125999935,0.125,0.13333333333333333,45,0,4.9,9 9 9 9 9,3 0 0 2 1,6 9 9 7 8,0.21428571428571427,compromise,2.4285714285714284
14,59,9,3,20,28,37,1,1.8623774699999558,10.8606611599989,0.25,0.2,5,0,6,1 1 1 1 1,0 0 0 1 0,1 1 1 0 1,0.47058823529411764,compromise,2.25
14,60,10,3,65,58,49,2,3.3243518700001005,6.51101685999947,0.625,0.6222222222222222,45,0,5.6,9 9 9 9 9,6 4 6 5 7,3 5 3 4 2,0.4375,compromise,2.4285714285714284
14,61,11,3,65,70,81,1,3.661287369999627,5.21343496000009,0.75,0.7555555555555555,45,0,5.1,9 9 9 9 9,7 6 6 9 6,2 3 3 0 3,0.3125,compromise,2.4285714285714284
14,62,12,3,40,31,22,1,9.130080569999336,9.65318845999991,0.375,0.4,5,0,6,1 1 1 1 1,0 1 0 1 0,1 0 1 0 1,0.5,compromise,2.25
14,63,13,3,20,30,35,3,3.9162823699998626,2.88178075999895,0.25,0.2,5,0,4.5,1 1 1 1 1,0 0 0 1 0,1 1 1 0 1,0.6666666666666666,compromise,2.25
14,64,14,3,60,70,78,2,3.9077802700003303,4.25621195999975,0.625,0.6,5,0,5.3,1 1 1 1 1,1 1 0 0 1,0 0 1 1 0,0.5555555555555556,compromise,2.25
14,65,15,3,10,15,27,3,2.7135606700003336,7.24953662999997,0.125,0.13333333333333333,45,0,5.7,9 9 9 9 9,1 2 1 1 1,8 7 8 8 8,0.29411764705882354,compromise,2.4285714285714284
14,66,16,3,60,70,75,3,4.19102397000006,4.2414328599998,0.625,0.6,5,0,5.3,1 1 1 1 1,1 1 1 0 0,0 0 0 1 1,0.6666666666666666,compromise,2.25
14,67,17,3,100,99,99,3,4.482763169999998,8.17741105999994,1,1,45,1,4.6,9 9 9 9 9,9 9 9 9 9,0 0 0 0 0,1,copy,2.4285714285714284
14,68,18,3,20,12,4,2,10.764893670000674,9.23911505999968,0.125,0.2,5,0,5.8,1 1 1 1 1,0 0 0 0 1,1 1 1 1 0,0.5,compromise,2.25
14,69,19,3,40,45,71,1,2.938192670000717,2.79702955999892,0.25,0.24444444444444444,45,1,5.7,9 9 9 9 9,1 4 1 3 2,8 5 8 6 7,0.16129032258064516,compromise,2.4285714285714284
14,70,20,3,20,29,37,2,6.145135869999649,12.5614670599989,0.25,0.2,5,0,5.3,1 1 1 1 1,0 1 0 0 0,1 0 1 1 1,0.5294117647058824,compromise,2.25
14,71,21,3,20,20,21,1,3.399341370000002,2.59757655999965,0.25,0.2,5,1,4.1,1 1 1 1 1,0 0 1 0 0,1 1 0 1 1,0,stay,2.25
14,72,22,3,80,72,65,1,4.436941869999828,12.1799033599991,0.75,0.8,5,0,5.6,1 1 1 1 1,1 1 1 1 0,0 0 0 0 1,0.5333333333333333,compromise,2.25
14,73,23,3,10,10,10,3,3.7911013700004332,2.24200825999924,0.125,0.13333333333333333,45,1,5,9 9 9 9 9,0 3 1 2 0,9 6 8 7 9,NA,NA,2.4285714285714284
14,74,24,3,80,75,65,2,8.52437177000047,7.05524475999937,0.75,0.7555555555555555,45,0,5.3,9 9 9 9 9,7 7 8 7 5,2 2 1 2 4,0.3333333333333333,compromise,2.4285714285714284
14,75,25,3,25,30,40,1,5.441093970000111,2.72823415999937,0.25,0.24444444444444444,45,0,4.3,9 9 9 9 9,3 2 2 2 2,6 7 7 7 7,0.3333333333333333,compromise,2.4285714285714284
16,1,1,1,25,30,40,2,6.319477640000059,5.41734929999984,0.75,0.7555555555555555,45,0,5.7,9 9 9 9 9,7 7 9 5 6,2 2 0 4 3,0.3333333333333333,compromise,2.142857142857143
16,2,2,1,18,24,36,1,5.588596040000084,3.29434394000009,0.25,0.24444444444444444,45,0,6,9 9 9 9 9,1 3 4 1 2,8 6 5 8 7,0.3333333333333333,compromise,2.142857142857143
16,3,3,1,15,17,31,1,4.109437640000124,2.09213632000001,0.25,0.24444444444444444,45,0,5.6,9 9 9 9 9,3 1 2 2 3,6 8 7 7 6,0.125,compromise,2.142857142857143
16,4,4,1,40,35,25,1,6.483783940000194,4.83035051999968,0.375,0.4,5,0,5.9,1 1 1 1 1,0 1 0 1 0,1 0 1 0 1,0.3333333333333333,compromise,1
16,5,5,1,82,75,65,1,6.121658540000226,4.77554752000015,0.75,0.8,5,0,5.8,1 1 1 1 1,1 1 1 0 1,0 0 0 1 0,0.4117647058823529,compromise,1
16,6,6,1,80,72,65,3,7.307922440000311,3.47311020000052,0.75,0.8,5,0,4.1,1 1 1 1 1,1 0 1 1 1,0 1 0 0 0,0.5333333333333333,compromise,1
16,7,7,1,10,10,10,3,3.5760965399999805,2.39344248000043,0.125,0.13333333333333333,45,1,4.9,9 9 9 9 9,1 0 2 3 0,8 9 7 6 9,NA,NA,2.142857142857143
16,8,8,1,35,45,50,3,4.732721140000194,3.24488027999996,0.375,0.37777777777777777,45,0,5.8,9 9 9 9 9,3 2 5 4 3,6 7 4 5 6,0.6666666666666666,compromise,2.142857142857143
16,9,9,1,10,15,27,2,4.855052540000543,1.86701011999958,0.125,0.13333333333333333,45,0,4.5,9 9 9 9 9,1 1 1 2 1,8 8 8 7 8,0.29411764705882354,compromise,2.142857142857143
16,10,10,1,40,40,56,1,8.974527240000498,6.1734511199993,0.625,0.6,5,0,4.9,1 1 1 1 1,1 1 0 0 1,0 0 1 1 0,0,stay,1
16,11,11,1,0,1,2,3,6.920072840000103,0.89704152000013,0,0,45,1,5.7,9 9 9 9 9,0 0 0 0 0,9 9 9 9 9,0.5,compromise,2.142857142857143
16,12,12,1,65,57,50,3,4.2578329400002985,6.63555577999978,0.625,0.6222222222222222,45,0,4.7,9 9 9 9 9,5 7 4 4 8,4 2 5 5 1,0.5333333333333333,compromise,2.142857142857143
16,13,13,1,20,10,4,2,7.35096134000014,3.5416420800002,0.125,0.2,5,0,5.8,1 1 1 1 1,1 0 0 0 0,0 1 1 1 1,0.625,compromise,1
16,14,14,1,83,72,65,3,8.887057639999512,4.08794592000049,0.75,0.8,5,0,4.8,1 1 1 1 1,0 1 1 1 1,1 0 0 0 0,0.6111111111111112,compromise,1
16,15,15,1,75,69,57,1,3.299308640000163,2.83749048000027,0.75,0.7555555555555555,45,0,4.7,9 9 9 9 9,8 5 7 6 8,1 4 2 3 1,0.3333333333333333,compromise,2.142857142857143
16,16,16,1,79,70,61,3,7.276158639999267,5.54282401999899,0.75,0.7555555555555555,45,0,5.7,9 9 9 9 9,7 8 7 6 6,2 1 2 3 3,0.5,compromise,2.142857142857143
16,17,17,1,80,67,39,2,4.450687340000513,6.60091201999876,0.75,0.8,5,1,5.5,1 1 1 1 1,0 1 1 1 1,1 0 0 0 0,0.3170731707317073,compromise,1
16,18,18,1,57,61,73,1,3.2160885399998733,2.96948168000017,0.625,0.6222222222222222,45,0,5.1,9 9 9 9 9,6 5 4 7 6,3 4 5 2 3,0.25,compromise,2.142857142857143
16,19,19,1,40,37,25,1,6.715758940000342,3.54264261999924,0.375,0.4,5,0,4.7,1 1 1 1 1,0 0 1 1 0,1 1 0 0 1,0.2,compromise,1
16,20,20,1,60,67,77,2,6.949545439999383,2.23151822,0.625,0.6,5,0,4.5,1 1 1 1 1,0 1 1 0 1,1 0 0 1 0,0.4117647058823529,compromise,1
16,21,21,1,44,44,45,2,5.716168540000581,3.19842632000018,0.375,0.4,5,1,5.7,1 1 1 1 1,0 0 1 0 1,1 1 0 1 0,0,stay,1
16,22,22,1,20,29,35,3,7.0949073400006455,2.54869201999918,0.375,0.4,5,0,5.7,1 1 1 1 1,0 0 0 1 1,1 1 1 0 0,0.6,compromise,1
16,23,23,1,30,32,45,1,3.9591493400002946,2.47542811999938,0.375,0.37777777777777777,45,0,4.1,9 9 9 9 9,3 5 3 3 3,6 4 6 6 6,0.13333333333333333,compromise,2.142857142857143
16,24,24,1,85,79,70,2,3.282325239999409,4.42302581999957,0.75,0.7555555555555555,45,0,4.8,9 9 9 9 9,7 4 7 8 8,2 5 2 1 1,0.4,compromise,2.142857142857143
16,25,25,1,23,26,40,1,2.0743107400003282,3.20902461999958,0.375,0.37777777777777777,45,0,5.3,9 9 9 9 9,3 5 1 4 4,6 4 8 5 5,0.17647058823529413,compromise,2.142857142857143
16,26,1,2,22,30,39,2,2.257709139999861,3.58574713999951,0.25,0.24444444444444444,45,0,6,9 9 9 9 9,4 2 5 0 0,5 7 4 9 9,0.47058823529411764,compromise,2.142857142857143
16,27,2,2,97,98,99,3,4.1156353400001535,3.5564139800008,1,1,5,1,4.6,1 1 1 1 1,1 1 1 1 1,0 0 0 0 0,0.5,compromise,1
16,28,3,2,20,30,38,1,3.3157024400006776,3.58729697999934,0.25,0.2,5,0,5.3,1 1 1 1 1,0 0 1 0 0,1 1 0 1 1,0.5555555555555556,compromise,1
16,29,4,2,13,20,28,3,2.80249103999995,2.17233751999902,0.125,0.13333333333333333,45,0,5.4,9 9 9 9 9,4 0 0 0 2,5 9 9 9 7,0.4666666666666667,compromise,2.142857142857143
16,30,5,2,26,19,10,3,3.2324972399992475,6.18772851999893,0.25,0.24444444444444444,45,0,4.8,9 9 9 9 9,2 1 3 3 2,7 8 6 6 7,0.4375,compromise,2.142857142857143
16,31,6,2,31,43,46,2,3.2773369400001684,3.51122031999967,0.375,0.37777777777777777,45,0,5.4,9 9 9 9 9,3 3 3 3 5,6 6 6 6 4,0.8,compromise,2.142857142857143
16,32,7,2,41,50,85,2,3.6444492399996307,5.32613932000004,0.375,0.37777777777777777,45,1,4.1,9 9 9 9 9,3 1 2 4 7,6 8 7 5 2,0.20454545454545456,compromise,2.142857142857143
16,33,8,2,25,17,10,3,2.857535840001219,2.83719412000028,0.25,0.24444444444444444,45,0,4.1,9 9 9 9 9,1 2 4 4 0,8 7 5 5 9,0.5333333333333333,compromise,2.142857142857143
16,34,9,2,80,70,65,2,7.059334640000088,3.44590437999977,0.75,0.8,5,0,5.8,1 1 1 1 1,1 1 1 0 1,0 0 0 1 0,0.6666666666666666,compromise,1
16,35,10,2,40,30,24,2,5.077062540000952,3.51079091999964,0.375,0.4,5,0,5.6,1 1 1 1 1,1 1 0 0 0,0 0 1 1 1,0.625,compromise,1
16,36,11,2,33,23,16,3,4.841002740001386,3.12078018000011,0.25,0.2,5,0,5.9,1 1 1 1 1,0 0 1 0 0,1 1 0 1 1,0.5882352941176471,compromise,1
16,37,12,2,69,68,67,1,4.223910140000044,4.07788677999997,0.625,0.6,5,1,5.5,1 1 1 1 1,1 1 0 1 0,0 0 1 0 1,0.5,compromise,1
16,38,13,2,20,28,35,3,3.9670145400014007,3.61681681999926,0.25,0.2,5,0,5.1,1 1 1 1 1,1 0 0 0 0,0 1 1 1 1,0.5333333333333333,compromise,1
16,39,14,2,13,20,28,2,1.753558539999176,1.72997401999964,0.125,0.13333333333333333,45,0,4.1,9 9 9 9 9,1 2 0 2 1,8 7 9 7 8,0.4666666666666667,compromise,2.142857142857143
16,40,15,2,84,75,67,2,4.987072740000258,2.94272738000018,0.75,0.8,5,0,4.6,1 1 1 1 1,1 1 1 1 0,0 0 0 0 1,0.5294117647058824,compromise,1
16,41,16,2,20,20,20,3,2.4449671399997897,2.12826677999965,0.125,0.2,5,1,4.6,1 1 1 1 1,0 0 1 0 0,1 1 0 1 1,NA,NA,1
16,42,17,2,41,30,25,3,6.090905539999767,3.87822158000017,0.375,0.4,5,0,5.7,1 1 1 1 1,0 1 0 1 0,1 0 1 0 1,0.6875,compromise,1
16,43,18,2,76,72,60,1,3.640831740000067,4.27868657999988,0.75,0.7555555555555555,45,0,5.9,9 9 9 9 9,7 6 5 7 9,2 3 4 2 0,0.25,compromise,2.142857142857143
16,44,19,2,23,29,39,2,1.6616828400001395,3.70978661999925,0.25,0.24444444444444444,45,0,5.6,9 9 9 9 9,2 4 3 1 1,7 5 6 8 8,0.375,compromise,2.142857142857143
16,45,20,2,33,43,50,2,2.629992639998818,3.07121852,0.375,0.37777777777777777,45,0,6,9 9 9 9 9,3 3 4 1 6,6 6 5 8 3,0.5882352941176471,compromise,2.142857142857143
16,46,21,2,50,44,35,3,3.077886139999464,2.64615581999988,0.375,0.37777777777777777,45,0,4,9 9 9 9 9,4 2 3 4 4,5 7 6 5 5,0.4,compromise,2.142857142857143
16,47,22,2,20,28,35,2,2.7659846399992603,3.14945761999934,0.25,0.2,5,0,5.4,1 1 1 1 1,0 0 0 1 0,1 1 1 0 1,0.5333333333333333,compromise,1
16,48,23,2,99,99,99,3,3.1575148400006583,2.28199391999897,1,1,45,1,4.7,9 9 9 9 9,9 9 9 9 9,0 0 0 0 0,NA,NA,2.142857142857143
16,49,24,2,40,31,25,2,9.724525540000286,4.23588052000105,0.375,0.4,5,0,4.1,1 1 1 1 1,0 1 1 0 0,1 0 0 1 1,0.6,compromise,1
16,50,25,2,20,10,5,2,2.820164140000088,2.07534721999946,0.125,0.2,5,0,5.1,1 1 1 1 1,0 0 0 1 0,1 1 1 0 1,0.6666666666666666,compromise,1
16,51,1,3,81,71,63,1,4.307814949999738,3.6829636500006,0.75,0.8,5,0,5,1 1 1 1 1,1 1 1 1 0,0 0 0 0 1,0.5555555555555556,compromise,1
16,52,2,3,20,11,5,1,3.0576872500005265,7.32734255000105,0.125,0.2,5,0,5,1 1 1 1 1,0 0 0 1 0,1 1 1 0 1,0.6,compromise,1
16,53,3,3,17,6,1,3,2.1036674500001027,1.62717075,0.125,0.2,5,0,4.5,1 1 1 1 1,0 0 0 0 1,1 1 1 1 0,0.6875,compromise,1
16,54,4,3,57,67,75,1,3.370535850000124,2.5485220999999,0.625,0.6,5,0,4.4,1 1 1 1 1,0 1 0 1 1,1 0 1 0 0,0.5555555555555556,compromise,1
16,55,5,3,18,25,35,1,2.536968350001189,2.34815309999976,0.25,0.2,5,0,4,1 1 1 1 1,0 1 0 0 0,1 0 1 1 1,0.4117647058823529,compromise,1
16,56,6,3,38,39,40,1,5.020196850000502,1.75280424999983,0.25,0.2,5,1,4.7,1 1 1 1 1,0 1 0 0 0,1 0 1 1 1,0.5,compromise,1
16,57,7,3,20,13,2,1,4.4281414499992025,2.75833214999966,0.125,0.2,5,0,5.8,1 1 1 1 1,0 0 0 0 1,1 1 1 1 0,0.3888888888888889,compromise,1
16,58,8,3,68,62,52,2,5.159021749999738,4.59996319999937,0.625,0.6222222222222222,45,0,5.9,9 9 9 9 9,5 6 5 5 7,4 3 4 4 2,0.375,compromise,2.142857142857143
16,59,9,3,61,70,78,2,7.882813350000106,2.39262125000096,0.625,0.6,5,0,4.7,1 1 1 1 1,1 0 1 1 0,0 1 0 0 1,0.5294117647058824,compromise,1
16,60,10,3,43,55,59,3,3.7147490500001368,3.24262680000083,0.625,0.6,5,0,5.4,1 1 1 1 1,1 0 1 0 1,0 1 0 1 0,0.75,compromise,1
16,61,11,3,73,77,88,3,3.14110675000029,2.72308739999971,0.75,0.7555555555555555,45,0,4.7,9 9 9 9 9,5 5 7 9 8,4 4 2 0 1,0.26666666666666666,compromise,2.142857142857143
16,62,12,3,22,12,5,3,1.8616745500003162,3.21311210000022,0.125,0.13333333333333333,45,0,4.2,9 9 9 9 9,2 0 2 0 2,7 9 7 9 7,0.5882352941176471,compromise,2.142857142857143
16,63,13,3,15,13,1,1,2.1299237499997616,2.94187520000014,0.125,0.13333333333333333,45,0,5.5,9 9 9 9 9,0 3 3 0 0,9 6 6 9 9,0.14285714285714285,compromise,2.142857142857143
16,64,14,3,68,68,67,1,4.541184750000866,2.2593690499998,0.625,0.6222222222222222,45,1,4.3,9 9 9 9 9,5 6 7 5 5,4 3 2 4 4,-0,stay,2.142857142857143
16,65,15,3,71,69,55,1,4.513416750000033,3.50427134999973,0.625,0.6222222222222222,45,0,5.6,9 9 9 9 9,3 6 7 7 5,6 3 2 2 4,0.125,compromise,2.142857142857143
16,66,16,3,40,54,55,3,5.19085664999966,2.91712450000068,0.625,0.6,5,0,4.2,1 1 1 1 1,1 1 0 0 1,0 0 1 1 0,0.9333333333333333,compromise,1
16,67,17,3,61,67,77,2,3.221698849999484,2.69948939999995,0.625,0.6222222222222222,45,0,5.2,9 9 9 9 9,5 5 5 6 7,4 4 4 3 2,0.375,compromise,2.142857142857143
16,68,18,3,21,21,62,1,5.690915850000238,2.51549309999973,0.25,0.24444444444444444,45,1,5.4,9 9 9 9 9,0 4 4 1 2,9 5 5 8 7,0,stay,2.142857142857143
16,69,19,3,20,29,37,2,2.894591450000007,2.7947201500001,0.25,0.2,5,0,4.4,1 1 1 1 1,1 0 0 0 0,0 1 1 1 1,0.5294117647058824,compromise,1
16,70,20,3,20,7,3,3,2.57837285000096,2.6379729500004,0.125,0.2,5,0,4.9,1 1 1 1 1,1 0 0 0 0,0 1 1 1 1,0.7647058823529411,compromise,1
16,71,21,3,69,66,53,3,2.6038910500001293,3.42815800000062,0.625,0.6222222222222222,45,0,4,9 9 9 9 9,6 7 6 5 4,3 2 3 4 5,0.1875,compromise,2.142857142857143
16,72,22,3,1,1,1,3,1.6243456500005777,0.717848950000189,0,0,5,1,4.2,1 1 1 1 1,0 0 0 0 0,1 1 1 1 1,NA,NA,1
16,73,23,3,41,42,92,2,2.394621650000772,5.72873190000064,0.5,0.4888888888888889,45,1,5.9,9 9 9 9 9,5 3 3 8 3,4 6 6 1 6,0.0196078431372549,compromise,2.142857142857143
16,74,24,3,74,74,73,2,4.932657150000523,4.85922995000055,0.75,0.7555555555555555,45,1,4.7,9 9 9 9 9,4 6 8 9 7,5 3 1 0 2,-0,stay,2.142857142857143
16,75,25,3,11,13,26,1,2.8322683500000494,2.4421565499988,0.125,0.13333333333333333,45,0,4.2,9 9 9 9 9,1 1 1 2 1,8 8 8 7 8,0.13333333333333333,compromise,2.142857142857143
17,1,1,1,20,28,38,3,13.817206989999704,4.26429860999997,0.375,0.4,5,0,5.7,1 1 1 1 1,0 0 1 1 0,1 1 0 0 1,0.4444444444444444,compromise,2
17,2,2,1,20,20,21,2,11.704003689999809,2.94872960000021,0.375,0.4,5,1,4.5,1 1 1 1 1,1 0 1 0 0,0 1 0 1 1,0,stay,2
17,3,3,1,17,20,35,3,9.553473689999919,3.39967281999998,0.25,0.2,5,0,4.7,1 1 1 1 1,0 0 1 0 0,1 1 0 1 1,0.16666666666666666,compromise,2
17,4,4,1,60,60,58,1,4.54087189000029,2.41665944000033,0.625,0.6,5,1,4.4,1 1 1 1 1,1 1 0 1 0,0 0 1 0 1,-0,stay,2
17,5,5,1,17,24,32,2,3.7092311900000823,3.40106501999935,0.25,0.24444444444444444,45,0,5,9 9 9 9 9,3 2 4 2 0,6 7 5 7 9,0.4666666666666667,compromise,1.5714285714285714
17,6,6,1,21,21,3,3,3.7572305899993808,1.85288601999991,0.125,0.13333333333333333,45,0,5.3,9 9 9 9 9,1 2 0 3 0,8 7 9 6 9,-0,stay,1.5714285714285714
17,7,7,1,65,67,50,1,3.6908940899998015,3.29931492000014,0.625,0.6222222222222222,45,0,5.1,9 9 9 9 9,7 3 4 5 9,2 6 5 4 0,-0.13333333333333333,stay,1.5714285714285714
17,8,8,1,18,17,1,3,5.26184338999974,2.12929961999953,0.125,0.2,5,0,4.9,1 1 1 1 1,0 0 0 1 0,1 1 1 0 1,0.058823529411764705,compromise,2
17,9,9,1,16,16,17,3,3.800635589999729,1.64321372999984,0.125,0.2,5,1,4.6,1 1 1 1 1,0 0 1 0 0,1 1 0 1 1,0,stay,2
17,10,10,1,5,4,3,3,4.0285020900000745,3.54641772000014,0,0,45,1,5.8,9 9 9 9 9,0 0 0 0 0,9 9 9 9 9,0.5,compromise,1.5714285714285714
17,11,11,1,66,60,48,1,6.540948589999971,3.39908831999992,0.625,0.6,5,0,5.6,1 1 1 1 1,0 1 1 1 0,1 0 0 0 1,0.3333333333333333,compromise,2
17,12,12,1,94,95,95,3,4.924325189999763,3.57662221999954,1,1,5,1,4.6,1 1 1 1 1,1 1 1 1 1,0 0 0 0 0,1,copy,2
17,13,13,1,12,17,30,2,4.074229689999811,2.9433986199997,0.125,0.13333333333333333,45,0,4.7,9 9 9 9 9,1 2 2 0 1,8 7 7 9 8,0.2777777777777778,compromise,1.5714285714285714
17,14,14,1,39,36,21,2,8.77848718999985,3.58677392000027,0.375,0.4,5,0,4.5,1 1 1 1 1,0 0 1 0 1,1 1 0 1 0,0.16666666666666666,compromise,2
17,15,15,1,80,75,62,3,4.096658689999913,3.43798831999948,0.75,0.7555555555555555,45,0,4.6,9 9 9 9 9,5 7 7 9 6,4 2 2 0 3,0.2777777777777778,compromise,1.5714285714285714
17,16,16,1,66,65,64,1,4.223963589999585,3.8920167199999,0.625,0.6222222222222222,45,1,5.1,9 9 9 9 9,5 6 7 6 4,4 3 2 3 5,0.5,compromise,1.5714285714285714
17,17,17,1,18,15,2,1,2.2364125900003273,4.09399441999994,0.125,0.13333333333333333,45,0,5,9 9 9 9 9,0 2 2 1 1,9 7 7 8 8,0.1875,compromise,1.5714285714285714
17,18,18,1,80,80,63,2,6.7074704899996505,2.39774922000015,0.75,0.8,5,0,4.6,1 1 1 1 1,1 1 1 0 1,0 0 0 1 0,-0,stay,2
17,19,19,1,51,52,36,1,3.8739046900000176,3.32286901999987,0.375,0.37777777777777777,45,0,5.5,9 9 9 9 9,4 2 5 2 4,5 7 4 7 5,-0.06666666666666667,stay,1.5714285714285714
17,20,20,1,17,17,35,3,5.64510478999955,2.33010931999934,0.25,0.2,5,0,4.6,1 1 1 1 1,0 0 0 1 0,1 1 1 0 1,0,stay,2
17,21,21,1,44,43,27,2,7.34527528999979,2.31168731999969,0.375,0.37777777777777777,45,0,5.7,9 9 9 9 9,3 4 1 3 6,6 5 8 6 3,0.058823529411764705,compromise,1.5714285714285714
17,22,22,1,86,85,70,3,5.599246889999904,4.56614911999986,0.75,0.8,5,0,4,1 1 1 1 1,1 1 1 0 1,0 0 0 1 0,0.0625,compromise,2
17,23,23,1,62,70,80,1,3.4927713900001436,2.85141511999973,0.625,0.6222222222222222,45,0,4.7,9 9 9 9 9,6 8 6 4 4,3 1 3 5 5,0.4444444444444444,compromise,1.5714285714285714
17,24,24,1,36,35,54,1,6.009677490000286,3.15876191000007,0.375,0.4,5,0,5.3,1 1 1 1 1,1 1 0 0 0,0 0 1 1 1,-0.05555555555555555,stay,2
17,25,25,1,13,15,28,3,2.5368021899998894,4.34576972000013,0.125,0.13333333333333333,45,0,4.4,9 9 9 9 9,0 2 4 0 0,9 7 5 9 9,0.13333333333333333,compromise,1.5714285714285714
17,26,1,2,59,62,75,3,5.520932720000474,2.34013769999956,0.625,0.6222222222222222,45,0,4.6,9 9 9 9 9,6 5 5 7 5,3 4 4 2 4,0.1875,compromise,1.5714285714285714
17,27,2,2,17,20,34,3,2.0692757200004053,4.66434275999973,0.25,0.24444444444444444,45,0,5.4,9 9 9 9 9,4 3 1 1 2,5 6 8 8 7,0.17647058823529413,compromise,1.5714285714285714
17,28,3,2,61,70,78,2,3.0896377200001552,5.23205955999993,0.625,0.6222222222222222,45,0,5.5,9 9 9 9 9,8 7 5 5 3,1 2 4 4 6,0.5294117647058824,compromise,1.5714285714285714
17,29,4,2,20,20,5,2,6.4741283200005455,2.56370823999987,0.125,0.2,5,0,4.9,1 1 1 1 1,0 1 0 0 0,1 0 1 1 1,-0,stay,2
17,30,5,2,16,15,15,3,3.132502220000333,2.09333403999926,0.125,0.13333333333333333,45,1,5.6,9 9 9 9 9,2 1 2 1 0,7 8 7 8 9,1,copy,1.5714285714285714
17,31,6,2,20,15,2,1,8.774140620000253,1.98686015999829,0.125,0.2,5,0,5.5,1 1 1 1 1,0 0 0 0 1,1 1 1 1 0,0.2777777777777778,compromise,2
17,32,7,2,13,15,31,2,3.6451475199992274,2.44984705999923,0.125,0.2,5,0,4.5,1 1 1 1 1,0 0 0 1 0,1 1 1 0 1,0.1111111111111111,compromise,2
17,33,8,2,70,66,52,2,5.627983219998896,2.46285803999945,0.625,0.6222222222222222,45,0,4.4,9 9 9 9 9,5 4 6 6 7,4 5 3 3 2,0.2222222222222222,compromise,1.5714285714285714
17,34,9,2,45,40,27,3,5.203159319999941,4.84656284000084,0.375,0.37777777777777777,45,0,4.8,9 9 9 9 9,5 4 1 4 3,4 5 8 5 6,0.2777777777777778,compromise,1.5714285714285714
17,35,10,2,60,65,75,2,3.7278595199995834,3.77036525999847,0.625,0.6,5,0,5.2,1 1 1 1 1,1 0 1 0 1,0 1 0 1 0,0.3333333333333333,compromise,2
17,36,11,2,20,20,2,3,5.738193619999038,2.26259253999888,0.125,0.2,5,0,4.6,1 1 1 1 1,0 1 0 0 0,1 0 1 1 1,-0,stay,2
17,37,12,2,45,45,3,2,4.688367019999532,3.33717095999964,0.5,0.4888888888888889,45,1,4.5,9 9 9 9 9,7 2 5 5 3,2 7 4 4 6,-0,stay,1.5714285714285714
17,38,13,2,60,65,75,3,11.257752519998576,3.44550505999996,0.625,0.6,5,0,4.7,1 1 1 1 1,0 0 1 1 1,1 1 0 0 0,0.3333333333333333,compromise,2
17,39,14,2,76,75,60,3,4.049141019999297,2.80524323999998,0.75,0.7555555555555555,45,0,4.7,9 9 9 9 9,5 8 8 6 7,4 1 1 3 2,0.0625,compromise,1.5714285714285714
17,40,15,2,66,67,51,1,6.449086019999413,3.79788636000012,0.625,0.6,5,0,4.3,1 1 1 1 1,0 0 1 1 1,1 1 0 0 0,-0.06666666666666667,stay,2
17,41,16,2,40,40,24,2,5.6112969200003135,1.91271594000045,0.375,0.4,5,0,4.2,1 1 1 1 1,0 1 0 0 1,1 0 1 1 0,-0,stay,2
17,42,17,2,95,97,97,3,3.550482919999922,3.34876196000005,1,1,45,1,5.7,9 9 9 9 9,9 9 9 9 9,0 0 0 0 0,1,copy,1.5714285714285714
17,43,18,2,12,19,30,1,3.7242462199992588,2.86758326000017,0.125,0.13333333333333333,45,0,5.1,9 9 9 9 9,2 2 0 1 1,7 7 9 8 8,0.3888888888888889,compromise,1.5714285714285714
17,44,19,2,40,40,22,1,10.330168219999905,2.35731845999908,0.375,0.4,5,0,5.3,1 1 1 1 1,1 0 0 0 1,0 1 1 1 0,-0,stay,2
17,45,20,2,20,20,35,1,4.744156520000615,2.1504209600007,0.25,0.2,5,0,4,1 1 1 1 1,0 0 1 0 0,1 1 0 1 1,0,stay,2
17,46,21,2,20,23,35,1,2.1615181199995277,2.57185193999976,0.25,0.24444444444444444,45,0,4.8,9 9 9 9 9,4 2 1 1 3,5 7 8 8 6,0.2,compromise,1.5714285714285714
17,47,22,2,21,21,19,1,1.9246953199990458,1.87639476000004,0.25,0.24444444444444444,45,1,5.9,9 9 9 9 9,2 3 0 3 3,7 6 9 6 6,-0,stay,1.5714285714285714
17,48,23,2,85,82,67,1,3.3409997199996724,4.32348575999913,0.75,0.7555555555555555,45,0,4.7,9 9 9 9 9,6 8 5 9 6,3 1 4 0 3,0.16666666666666666,compromise,1.5714285714285714
17,49,24,2,60,65,75,3,7.221696020000309,4.0987192599996,0.625,0.6,5,0,5.3,1 1 1 1 1,1 1 0 1 0,0 0 1 0 1,0.3333333333333333,compromise,2
17,50,25,2,80,80,62,1,7.540688119999686,3.49070975999985,0.75,0.8,5,0,5.2,1 1 1 1 1,0 1 1 1 1,1 0 0 0 0,-0,stay,2
17,51,1,3,3,3,1,3,3.6408792299998822,1.19613920000029,0,0,5,1,5.4,1 1 1 1 1,0 0 0 0 0,1 1 1 1 1,-0,stay,2
17,52,2,3,22,21,40,3,1.9550406300004397,2.46231904000069,0.25,0.24444444444444444,45,0,5.7,9 9 9 9 9,0 3 1 5 2,9 6 8 4 7,-0.05555555555555555,stay,1.5714285714285714
17,53,3,3,20,20,20,1,4.01200702999995,3.42697990999932,0.25,0.2,5,1,4.8,1 1 1 1 1,0 0 0 1 0,1 1 1 0 1,NA,NA,2
17,54,4,3,67,72,82,1,3.285518830000001,4.07958474000043,0.75,0.7555555555555555,45,0,5.7,9 9 9 9 9,9 6 9 5 5,0 3 0 4 4,0.3333333333333333,compromise,1.5714285714285714
17,55,5,3,70,70,70,2,4.2909482299992305,3.96422504000111,0.75,0.7555555555555555,45,1,4.4,9 9 9 9 9,8 6 5 7 8,1 3 4 2 1,NA,NA,1.5714285714285714
17,56,6,3,40,38,25,3,5.871697830000812,2.47978360999969,0.375,0.37777777777777777,45,0,5.7,9 9 9 9 9,4 5 1 4 3,5 4 8 5 6,0.13333333333333333,compromise,1.5714285714285714
17,57,7,3,88,82,72,2,3.6561423299990565,3.61174374000075,0.75,0.7555555555555555,45,0,4,9 9 9 9 9,6 7 7 8 6,3 2 2 1 3,0.375,compromise,1.5714285714285714
17,58,8,3,16,17,31,1,2.2279873299994506,2.33056870999917,0.25,0.24444444444444444,45,0,4.4,9 9 9 9 9,2 1 2 3 3,7 8 7 6 6,0.06666666666666667,compromise,1.5714285714285714
17,59,9,3,10,18,25,2,1.4363179299989497,2.26436454000032,0.125,0.13333333333333333,45,0,5.3,9 9 9 9 9,2 1 2 1 0,7 8 7 8 9,0.5333333333333333,compromise,1.5714285714285714
17,60,10,3,45,53,63,2,3.4621090299997377,2.76124341000013,0.625,0.6,5,0,4.9,1 1 1 1 1,1 0 1 0 1,0 1 0 1 0,0.4444444444444444,compromise,2
17,61,11,3,20,20,37,2,3.5324106299995037,2.06961634000072,0.25,0.2,5,0,4.4,1 1 1 1 1,0 0 1 0 0,1 1 0 1 1,0,stay,2
17,62,12,3,19,22,35,2,1.8801699300001928,2.09333094000067,0.25,0.24444444444444444,45,0,5.9,9 9 9 9 9,3 1 2 2 3,6 8 7 7 6,0.1875,compromise,1.5714285714285714
17,63,13,3,39,39,38,2,2.5992552299994713,2.2796833400007,0.375,0.37777777777777777,45,1,4.3,9 9 9 9 9,2 4 4 3 4,7 5 5 6 5,-0,stay,1.5714285714285714
17,64,14,3,35,35,50,1,4.4452664299997195,1.79292500999964,0.375,0.37777777777777777,45,0,5,9 9 9 9 9,2 3 5 4 3,7 6 4 5 6,0,stay,1.5714285714285714
17,65,15,3,20,20,38,1,3.474198830000205,1.3983065099992,0.25,0.2,5,0,4.6,1 1 1 1 1,0 1 0 0 0,1 0 1 1 1,0,stay,2
17,66,16,3,40,37,25,3,6.666076629999225,1.81255960999988,0.375,0.4,5,0,4.9,1 1 1 1 1,0 1 0 0 1,1 0 1 1 0,0.2,compromise,2
17,67,17,3,40,38,23,2,3.555285929999627,2.04625930999919,0.375,0.37777777777777777,45,0,5.8,9 9 9 9 9,4 2 4 3 4,5 7 5 6 5,0.11764705882352941,compromise,1.5714285714285714
17,68,18,3,20,20,35,2,4.445207830000072,1.26158780999958,0.25,0.2,5,0,4.9,1 1 1 1 1,0 0 0 1 0,1 1 1 0 1,0,stay,2
17,69,19,3,80,78,65,2,2.921657329999107,3.52677833999951,0.75,0.7555555555555555,45,0,5,9 9 9 9 9,7 7 7 7 6,2 2 2 2 3,0.13333333333333333,compromise,1.5714285714285714
17,70,20,3,80,80,80,2,5.644929029998821,2.50016034000055,0.75,0.8,5,1,4.2,1 1 1 1 1,1 1 1 0 1,0 0 0 1 0,NA,NA,2
17,71,21,3,69,70,54,3,4.15168993000043,3.04406121000011,0.625,0.6222222222222222,45,0,4.3,9 9 9 9 9,4 6 6 3 9,5 3 3 6 0,-0.06666666666666667,stay,1.5714285714285714
17,72,22,3,80,80,65,2,3.653768129999662,2.8109488099999,0.75,0.8,5,0,6,1 1 1 1 1,1 1 1 1 0,0 0 0 0 1,-0,stay,2
17,73,23,3,80,80,65,3,2.905214030000934,2.01966634000019,0.75,0.8,5,0,6,1 1 1 1 1,0 1 1 1 1,1 0 0 0 0,-0,stay,2
17,74,24,3,80,80,63,1,3.488537830000496,3.74489051,0.75,0.8,5,0,5.8,1 1 1 1 1,1 0 1 1 1,0 1 0 0 0,-0,stay,2
17,75,25,3,20,20,4,1,3.6427838300005533,1.47758750999947,0.125,0.2,5,0,5.6,1 1 1 1 1,0 0 0 1 0,1 1 1 0 1,-0,stay,2
23,1,1,1,18,11,3,2,10.816224039999724,7.05182283999966,0.125,0.13333333333333333,45,0,5.5,9 9 9 9 9,1 2 2 1 0,8 7 7 8 9,0.4666666666666667,compromise,1.8571428571428572
23,2,2,1,80,75,65,1,4.924496540000291,6.68874982000034,0.75,0.8,5,0,5.4,1 1 1 1 1,1 1 1 1 0,0 0 0 0 1,0.3333333333333333,compromise,2.875
23,3,3,1,40,30,22,1,7.466091939999387,7.70620612000039,0.375,0.37777777777777777,45,0,5.7,9 9 9 9 9,3 3 2 5 4,6 6 7 4 5,0.5555555555555556,compromise,1.8571428571428572
23,4,4,1,26,18,10,1,14.09950334000041,8.40769697999986,0.25,0.24444444444444444,45,0,4.8,9 9 9 9 9,2 2 3 2 2,7 7 6 7 7,0.5,compromise,1.8571428571428572
23,5,5,1,20,28,37,3,6.482622139999876,8.84359141999994,0.25,0.2,5,0,4.1,1 1 1 1 1,0 0 0 1 0,1 1 1 0 1,0.47058823529411764,compromise,2.875
23,6,6,1,20,25,37,1,3.794603339999412,8.59565991999989,0.25,0.2,5,0,5.8,1 1 1 1 1,1 0 0 0 0,0 1 1 1 1,0.29411764705882354,compromise,2.875
23,7,7,1,75,86,91,2,3.145116039999266,10.3991108200007,0.75,0.7555555555555555,45,0,4.6,9 9 9 9 9,6 7 8 5 8,3 2 1 4 1,0.6875,compromise,1.8571428571428572
23,8,8,1,20,12,5,1,4.782570140001553,14.1621795200008,0.125,0.2,5,0,4.7,1 1 1 1 1,0 0 0 0 1,1 1 1 1 0,0.5333333333333333,compromise,2.875
23,9,9,1,40,50,55,1,5.009531739999147,2.70285221999984,0.625,0.6222222222222222,45,0,4.1,9 9 9 9 9,6 7 7 4 4,3 2 2 5 5,0.6666666666666666,compromise,1.8571428571428572
23,10,10,1,11,45,61,1,6.2432097399996564,10.114032219999,0.25,0.24444444444444444,45,1,5,9 9 9 9 9,3 0 3 2 3,6 9 6 7 6,0.68,compromise,1.8571428571428572
23,11,11,1,25,15,10,3,7.699534639999911,4.3442590199993,0.25,0.24444444444444444,45,0,4.5,9 9 9 9 9,2 2 2 4 1,7 7 7 5 8,0.6666666666666666,compromise,1.8571428571428572
23,12,12,1,20,20,20,3,9.416048639997825,3.22942672000136,0.125,0.13333333333333333,45,1,4.7,9 9 9 9 9,1 2 2 1 0,8 7 7 8 9,NA,NA,1.8571428571428572
23,13,13,1,40,35,24,2,4.421793139999863,8.59595411999908,0.375,0.4,5,0,4.5,1 1 1 1 1,1 1 0 0 0,0 0 1 1 1,0.3125,compromise,2.875
23,14,14,1,20,12,5,3,2.5037156400012464,4.52357802000006,0.125,0.2,5,0,4.5,1 1 1 1 1,0 0 1 0 0,1 1 0 1 1,0.5333333333333333,compromise,2.875
23,15,15,1,20,12,3,3,3.4594944399977976,8.42682001999856,0.125,0.2,5,0,5.1,1 1 1 1 1,0 0 0 1 0,1 1 1 0 1,0.47058823529411764,compromise,2.875
23,16,16,1,20,11,3,2,4.928224739998768,11.328429520001,0.125,0.2,5,0,4.2,1 1 1 1 1,0 1 0 0 0,1 0 1 1 1,0.5294117647058824,compromise,2.875
23,17,17,1,38,54,54,1,4.2204816399989795,7.78791851999995,0.75,0.7555555555555555,45,0,5.7,9 9 9 9 9,6 8 7 6 7,3 1 2 3 2,1,copy,1.8571428571428572
23,18,18,1,50,40,33,3,4.16613273999792,13.5507160599991,0.375,0.37777777777777777,45,0,5.1,9 9 9 9 9,6 3 3 1 4,3 6 6 8 5,0.5882352941176471,compromise,1.8571428571428572
23,19,19,1,100,99,98,3,1.5114367400001356,3.88848241999949,1,1,5,1,5.7,1 1 1 1 1,1 1 1 1 1,0 0 0 0 0,0.5,compromise,2.875
23,20,20,1,80,73,62,2,5.311701339998763,10.02709942,0.75,0.8,5,0,5.8,1 1 1 1 1,0 1 1 1 1,1 0 0 0 0,0.3888888888888889,compromise,2.875
23,21,21,1,0,1,2,3,6.8118672399996285,13.8975138200003,0,0,45,1,5.7,9 9 9 9 9,0 0 0 0 0,9 9 9 9 9,0.5,compromise,1.8571428571428572
23,22,22,1,80,72,65,3,5.61599183999715,7.12543611999899,0.75,0.7555555555555555,45,0,5.8,9 9 9 9 9,5 6 7 9 7,4 3 2 0 2,0.5333333333333333,compromise,1.8571428571428572
23,23,23,1,20,28,36,1,5.853747640001529,6.8343893199999,0.25,0.24444444444444444,45,0,5.5,9 9 9 9 9,2 3 2 1 3,7 6 7 8 6,0.5,compromise,1.8571428571428572
23,24,24,1,50,50,50,2,1.93248143999881,4.31461931999911,0.5,0.4888888888888889,45,1,5.9,9 9 9 9 9,6 5 4 4 3,3 4 5 5 6,NA,NA,1.8571428571428572
23,25,25,1,40,32,23,3,12.221690939999462,8.8449831199996,0.375,0.4,5,0,5.2,1 1 1 1 1,0 0 0 1 1,1 1 1 0 0,0.47058823529411764,compromise,2.875
23,26,1,2,78,65,60,3,8.82187625000006,4.73648514999877,0.75,0.7555555555555555,45,0,4.6,9 9 9 9 9,8 7 7 7 5,1 2 2 2 4,0.7222222222222222,compromise,1.8571428571428572
23,27,2,2,60,67,75,3,3.644657550001284,9.24372470000162,0.625,0.6,5,0,4.7,1 1 1 1 1,1 1 1 0 0,0 0 0 1 1,0.4666666666666667,compromise,2.875
23,28,3,2,40,32,24,3,8.965579450001314,9.6991214000027,0.375,0.4,5,0,5.5,1 1 1 1 1,0 1 0 1 0,1 0 1 0 1,0.5,compromise,2.875
23,29,4,2,40,32,23,2,12.624374850000095,8.70094009999957,0.375,0.4,5,0,4.2,1 1 1 1 1,1 1 0 0 0,0 0 1 1 1,0.47058823529411764,compromise,2.875
23,30,5,2,20,15,5,2,3.94935975000044,5.07796069999858,0.125,0.2,5,0,5.6,1 1 1 1 1,0 1 0 0 0,1 0 1 1 1,0.3333333333333333,compromise,2.875
23,31,6,2,60,60,60,1,4.232373650000227,2.86504080000122,0.625,0.6222222222222222,45,1,5.2,9 9 9 9 9,7 6 4 5 6,2 3 5 4 3,NA,NA,1.8571428571428572
23,32,7,2,20,20,20,3,3.2368837499998335,1.83570850000069,0.125,0.2,5,1,4.9,1 1 1 1 1,0 0 1 0 0,1 1 0 1 1,NA,NA,2.875
23,33,8,2,20,29,35,2,12.90363465000155,9.75460740000017,0.25,0.24444444444444444,45,0,4.6,9 9 9 9 9,3 4 2 0 2,6 5 7 9 7,0.6,compromise,1.8571428571428572
23,34,9,2,40,32,24,1,7.332626450001044,7.57928220000031,0.375,0.4,5,0,4.1,1 1 1 1 1,0 1 1 0 0,1 0 0 1 1,0.5,compromise,2.875
23,35,10,2,80,73,65,3,4.040754450001259,7.9267415000013,0.75,0.8,5,0,4.4,1 1 1 1 1,1 1 1 0 1,0 0 0 1 0,0.4666666666666667,compromise,2.875
23,36,11,2,25,34,42,3,3.167121450000195,10.2719278499972,0.375,0.37777777777777777,45,0,5.3,9 9 9 9 9,4 3 1 5 4,5 6 8 4 5,0.5294117647058824,compromise,1.8571428571428572
23,37,12,2,65,58,50,3,9.974293850000322,5.02029860000221,0.625,0.6222222222222222,45,0,5.4,9 9 9 9 9,5 5 5 9 4,4 4 4 0 5,0.4666666666666667,compromise,1.8571428571428572
23,38,13,2,30,20,13,3,10.020350650000182,8.64340130000346,0.25,0.24444444444444444,45,0,4.2,9 9 9 9 9,2 1 3 2 3,7 8 6 7 6,0.5882352941176471,compromise,1.8571428571428572
23,39,14,2,80,71,62,2,6.828289150000273,7.49670790000164,0.75,0.8,5,0,5.2,1 1 1 1 1,1 1 1 1 0,0 0 0 0 1,0.5,compromise,2.875
23,40,15,2,60,45,19,1,9.532666050001353,11.2623894999997,0.625,0.6,5,1,4.3,1 1 1 1 1,0 0 1 1 1,1 1 0 0 0,0.36585365853658536,compromise,2.875
23,41,16,2,10,18,26,1,6.420536950001406,3.99403790000179,0.125,0.13333333333333333,45,0,4.6,9 9 9 9 9,0 2 0 3 1,9 7 9 6 8,0.5,compromise,1.8571428571428572
23,42,17,2,40,40,40,2,6.590859050002109,2.09309050000229,0.375,0.4,5,1,6,1 1 1 1 1,0 0 1 0 1,1 1 0 1 0,NA,NA,2.875
23,43,18,2,15,8,1,1,8.116112249999787,6.13996385000064,0.125,0.13333333333333333,45,0,4.5,9 9 9 9 9,1 2 0 1 2,8 7 9 8 7,0.5,compromise,1.8571428571428572
23,44,19,2,40,32,25,1,4.699101049998717,4.45221259999926,0.375,0.37777777777777777,45,0,5.3,9 9 9 9 9,5 2 3 3 4,4 7 6 6 5,0.5333333333333333,compromise,1.8571428571428572
23,45,20,2,24,32,40,2,6.844736849998299,7.97858290000113,0.375,0.37777777777777777,45,0,4.6,9 9 9 9 9,3 2 4 3 5,6 7 5 6 4,0.5,compromise,1.8571428571428572
23,46,21,2,20,12,5,3,8.725994149999678,4.15555330000097,0.125,0.13333333333333333,45,0,4.8,9 9 9 9 9,2 1 2 1 0,7 8 7 8 9,0.5333333333333333,compromise,1.8571428571428572
23,47,22,2,20,13,5,1,3.113074349997987,6.76870550000058,0.125,0.2,5,0,5.6,1 1 1 1 1,0 1 0 0 0,1 0 1 1 1,0.4666666666666667,compromise,2.875
23,48,23,2,60,68,75,1,3.520067850002306,6.75843284999792,0.625,0.6222222222222222,45,0,4.6,9 9 9 9 9,5 6 5 7 5,4 3 4 2 4,0.5333333333333333,compromise,1.8571428571428572
23,49,24,2,22,30,39,2,2.6114495500005432,6.87019809999947,0.25,0.24444444444444444,45,0,4.6,9 9 9 9 9,1 3 1 3 3,8 6 8 6 6,0.47058823529411764,compromise,1.8571428571428572
23,50,25,2,18,10,1,2,3.7409181500006525,4.39356750000115,0.125,0.13333333333333333,45,0,4.8,9 9 9 9 9,1 1 1 0 3,8 8 8 9 6,0.47058823529411764,compromise,1.8571428571428572
23,51,1,3,20,20,20,1,3.244730949998484,2.20279525000296,0.25,0.2,5,1,4.9,1 1 1 1 1,0 1 0 0 0,1 0 1 1 1,NA,NA,2.875
23,52,2,3,80,80,80,2,2.7487848500004475,3.72245750000184,0.75,0.8,5,1,5.6,1 1 1 1 1,1 1 1 1 0,0 0 0 0 1,NA,NA,2.875
23,53,3,3,60,69,78,2,9.19908575000045,2.13909600000261,0.625,0.6,5,0,5,1 1 1 1 1,1 1 0 1 0,0 0 1 0 1,0.5,compromise,2.875
23,54,4,3,60,68,76,1,2.7858756500008894,3.19266659999994,0.625,0.6,5,0,5.3,1 1 1 1 1,1 0 1 1 0,0 1 0 0 1,0.5,compromise,2.875
23,55,5,3,45,23,3,2,9.961958050000248,8.71420930000022,0.375,0.37777777777777777,45,1,4.5,9 9 9 9 9,7 2 3 2 3,2 7 6 7 6,0.5238095238095238,compromise,1.8571428571428572
23,56,6,3,80,72,65,3,4.977802850000444,5.69367550000061,0.75,0.8,5,0,4.8,1 1 1 1 1,1 1 1 0 1,0 0 0 1 0,0.5333333333333333,compromise,2.875
23,57,7,3,20,30,35,3,4.1700260500001605,4.32160330000079,0.25,0.2,5,0,4.1,1 1 1 1 1,0 1 0 0 0,1 0 1 1 1,0.6666666666666666,compromise,2.875
23,58,8,3,55,65,73,2,3.8659287499995116,5.27507985000193,0.625,0.6222222222222222,45,0,5.2,9 9 9 9 9,3 7 8 4 6,6 2 1 5 3,0.5555555555555556,compromise,1.8571428571428572
23,59,9,3,60,68,76,2,2.524171250001018,3.57106490000115,0.625,0.6,5,0,4.3,1 1 1 1 1,0 0 1 1 1,1 1 0 0 0,0.5,compromise,2.875
23,60,10,3,25,32,40,2,2.3869758499986347,7.23013200000241,0.75,0.7555555555555555,45,0,4.2,9 9 9 9 9,6 8 7 6 7,3 1 2 3 2,0.4666666666666667,compromise,1.8571428571428572
23,61,11,3,20,27,35,2,1.7869347500000003,5.7789556000007,0.25,0.2,5,0,5.2,1 1 1 1 1,0 0 1 0 0,1 1 0 1 1,0.4666666666666667,compromise,2.875
23,62,12,3,25,78,80,2,7.182459549998384,10.5705683000015,0.75,0.7555555555555555,45,1,4.8,9 9 9 9 9,8 6 9 8 3,1 3 0 1 6,0.9636363636363636,compromise,1.8571428571428572
23,63,13,3,0,1,2,3,17.972055649999675,9.14568650000001,0,0,5,1,5.5,1 1 1 1 1,0 0 0 0 0,1 1 1 1 1,0.5,compromise,2.875
23,64,14,3,10,19,28,3,4.524128850000125,3.26159430000007,0.125,0.13333333333333333,45,0,4.5,9 9 9 9 9,1 1 1 3 0,8 8 8 6 9,0.5,compromise,1.8571428571428572
23,65,15,3,75,67,60,2,9.56975654999951,4.22618140000304,0.625,0.6222222222222222,45,0,4.7,9 9 9 9 9,3 5 7 8 5,6 4 2 1 4,0.5333333333333333,compromise,1.8571428571428572
23,66,16,3,34,42,51,2,6.346549949999826,10.7602971000033,0.375,0.37777777777777777,45,0,5.8,9 9 9 9 9,4 4 5 3 1,5 5 4 6 8,0.47058823529411764,compromise,1.8571428571428572
23,67,17,3,60,68,76,3,4.89450085000135,7.07819410000047,0.625,0.6,5,0,4.4,1 1 1 1 1,1 1 1 0 0,0 0 0 1 1,0.5,compromise,2.875
23,68,18,3,20,28,37,2,5.661204349997206,5.87986300000375,0.25,0.2,5,0,4.4,1 1 1 1 1,1 0 0 0 0,0 1 1 1 1,0.47058823529411764,compromise,2.875
23,69,19,3,40,32,24,1,7.240894849999677,3.76064100000076,0.375,0.4,5,0,5.4,1 1 1 1 1,1 0 1 0 0,0 1 0 1 1,0.5,compromise,2.875
23,70,20,3,100,99,99,3,1.394428550000157,3.67431820000274,1,1,45,1,4.7,9 9 9 9 9,9 9 9 9 9,0 0 0 0 0,1,copy,1.8571428571428572
23,71,21,3,60,67,75,1,4.571612349998759,3.11315200000354,0.625,0.6,5,0,5.9,1 1 1 1 1,1 0 1 1 0,0 1 0 0 1,0.4666666666666667,compromise,2.875
23,72,22,3,58,68,75,3,3.2818205500007025,2.4645818500012,0.625,0.6222222222222222,45,0,4.1,9 9 9 9 9,6 4 6 5 7,3 5 3 4 2,0.5882352941176471,compromise,1.8571428571428572
23,73,23,3,80,72,65,1,3.0908490500005428,2.31253790000119,0.75,0.8,5,0,5.4,1 1 1 1 1,1 1 1 1 0,0 0 0 0 1,0.5333333333333333,compromise,2.875
23,74,24,3,20,28,36,1,2.1445915500025876,4.67865109999912,0.25,0.2,5,0,4.6,1 1 1 1 1,0 0 0 0 1,1 1 1 1 0,0.5,compromise,2.875
23,75,25,3,77,68,62,1,5.474317350001002,3.65290620000087,0.75,0.7555555555555555,45,0,4.2,9 9 9 9 9,8 7 6 6 7,1 2 3 3 2,0.6,compromise,1.8571428571428572
27,1,1,1,33,35,48,1,5.1493525999994745,5.86029790000066,0.375,0.37777777777777777,45,0,5.5,9 9 9 9 9,5 5 4 1 2,4 4 5 8 7,0.13333333333333333,compromise,2.5714285714285716
27,2,2,1,20,5,5,3,6.149456699999064,5.09792929999639,0.125,0.2,5,0,5.5,1 1 1 1 1,0 1 0 0 0,1 0 1 1 1,1,copy,1.125
27,3,3,1,20,37,38,3,4.0493679999999586,6.68849549999868,0.25,0.2,5,0,5.6,1 1 1 1 1,0 1 0 0 0,1 0 1 1 1,0.9444444444444444,compromise,1.125
27,4,4,1,10,45,60,3,4.692821199998434,20.7540233,0.125,0.13333333333333333,45,1,5.7,9 9 9 9 9,1 1 0 3 1,8 8 9 6 8,0.7,compromise,2.5714285714285716
27,5,5,1,20,20,38,1,2.8990764999998646,5.09765119999793,0.25,0.24444444444444444,45,0,5.2,9 9 9 9 9,3 2 2 3 1,6 7 7 6 8,0,stay,2.5714285714285716
27,6,6,1,80,72,65,3,5.274408000001131,7.66853840000113,0.75,0.7555555555555555,45,0,4.8,9 9 9 9 9,6 8 6 8 6,3 1 3 1 3,0.5333333333333333,compromise,2.5714285714285716
27,7,7,1,75,80,90,2,4.82828309999968,5.31292849999954,0.75,0.7555555555555555,45,0,4.5,9 9 9 9 9,4 7 7 9 7,5 2 2 0 2,0.3333333333333333,compromise,2.5714285714285716
27,8,8,1,62,65,80,1,4.224228300001414,3.65874949999852,0.625,0.6222222222222222,45,0,5.8,9 9 9 9 9,6 5 4 8 5,3 4 5 1 4,0.16666666666666666,compromise,2.5714285714285716
27,9,9,1,23,23,25,1,6.404944899999464,4.03973870000118,0.25,0.24444444444444444,45,1,5.9,9 9 9 9 9,1 3 3 2 2,8 6 6 7 7,0,stay,2.5714285714285716
27,10,10,1,20,17,4,1,5.957613199998377,7.0424957000032,0.125,0.2,5,0,5.5,1 1 1 1 1,0 1 0 0 0,1 0 1 1 1,0.1875,compromise,1.125
27,11,11,1,0,0,2,3,3.2049755999978515,1.69178010000178,0,0,45,1,5.8,9 9 9 9 9,0 0 0 0 0,9 9 9 9 9,0,stay,2.5714285714285716
27,12,12,1,20,29,37,3,5.891148299999259,7.20252520000213,0.25,0.24444444444444444,45,0,5.6,9 9 9 9 9,3 2 3 2 1,6 7 6 7 8,0.5294117647058824,compromise,2.5714285714285716
27,13,13,1,25,8,8,3,8.53865709999991,12.6076446999978,0.125,0.2,5,0,5.4,1 1 1 1 1,0 0 0 0 1,1 1 1 1 0,1,copy,1.125
27,14,14,1,20,10,2,2,4.2612207000001945,4.1237697000015,0.125,0.2,5,0,5.8,1 1 1 1 1,0 0 1 0 0,1 1 0 1 1,0.5555555555555556,compromise,1.125
27,15,15,1,80,70,63,1,2.757467400000678,10.8431027999995,0.75,0.8,5,0,5.6,1 1 1 1 1,1 1 1 0 1,0 0 0 1 0,0.5882352941176471,compromise,1.125
27,16,16,1,38,30,21,3,5.303678899999795,9.62356689999979,0.375,0.37777777777777777,45,0,4.8,9 9 9 9 9,5 4 4 2 2,4 5 5 7 7,0.47058823529411764,compromise,2.5714285714285716
27,17,17,1,34,48,50,3,10.405076699998972,9.80581579999853,0.375,0.4,5,0,5.4,1 1 1 1 1,1 0 0 0 1,0 1 1 1 0,0.875,compromise,1.125
