sID,trial_number,trial_number_run,run,estimate1,confidence_rating,estimate2,estimate_peer,confidence_peer,estimate1_rt,confidence_rt,estimate2_rt,true_ratio,seen_ratio,nTotal,filler_trial,ITI,nMushrooms,nBlue,nRed
3,1,1,prac,65,1,55,50,2,7.09582910999984,2.40296201000001,4.31708044999982,0.625,0.6,5,0,1.9,1 1 1 1 1,1 1 1 0 0,0 0 0 1 1
3,2,2,prac,90,3,90,74,1,4.48012600999994,2.720214310000074,3.75228755000001,0.875,0.8666666666666667,45,0,1.7,9 9 9 9 9,8 6 9 8 8,1 3 0 1 1
3,3,3,prac,44,1,30,2,1,12.04616341,1.8703820099999575,7.84979016,0.5,0.4,5,1,1.9,1 1 1 1 1,1 1 0 0 0,0 0 1 1 1
3,4,4,prac,53,1,60,70,1,3.74628200999996,2.6365818099999387,3.82675046000008,0.625,0.6,5,0,1.5,1 1 1 1 1,0 1 0 1 1,1 0 1 0 0
3,5,5,prac,40,1,27,22,1,5.94547010999986,1.6696315099998174,7.66306046000022,0.375,0.4,5,0,1.7,1 1 1 1 1,1 0 0 1 0,0 1 1 0 1
3,6,6,prac,70,1,90,85,3,4.43003671000019,2.2201214100002744,8.11638416000005,0.875,0.8,5,0,1.7,1 1 1 1 1,1 1 0 1 1,0 0 1 0 0
3,7,7,prac,80,2,80,80,3,7.56379081,1.986840610000172,2.93155386000012,0.875,0.8,5,1,1.6,1 1 1 1 1,1 1 1 0 1,0 0 0 1 0
3,8,8,prac,65,1,55,50,3,8.21287960999985,2.6532218100001046,6.75155214999995,0.625,0.6,5,0,1.9,1 1 1 1 1,0 0 1 1 1,1 1 0 0 0
3,9,9,prac,58,2,75,76,3,6.36213111000006,1.9535386100001233,7.68373674999975,0.625,0.6222222222222222,45,0,1.9,9 9 9 9 9,6 7 7 4 4,3 2 2 5 5
3,10,10,prac,99,3,99,99,3,3.81256490999999,2.15383240999995,3.41742805000013,1,1,45,1,1.7,9 9 9 9 9,9 9 9 9 9,0 0 0 0 0
3,11,11,prac,55,2,60,70,1,3.2803546099999,1.6358029099999385,5.18541845000004,0.625,0.6222222222222222,45,0,1.7,9 9 9 9 9,5 5 7 6 5,4 4 2 3 4
3,12,12,prac,43,2,33,28,3,6.19619940999974,1.5170440100000633,10.4880509499999,0.375,0.37777777777777777,45,0,1.5,9 9 9 9 9,1 3 6 5 2,8 6 3 4 7
3,13,13,prac,54,2,64,70,2,5.91286421000018,1.7533899099996688,8.71801214999982,0.625,0.6222222222222222,45,0,1.9,9 9 9 9 9,8 5 4 6 5,1 4 5 3 4
3,14,14,prac,10,3,12,27,1,6.61193851000007,2.153187010000238,3.11933004999992,0.125,0.13333333333333333,45,0,1.6,9 9 9 9 9,3 0 2 1 0,6 9 7 8 9
3,15,15,prac,20,2,12,5,1,7.23040231000027,1.6520389100001012,4.48284975999991,0.125,0.2,5,0,1.9,1 1 1 1 1,0 0 0 0 1,1 1 1 1 0
6,1,1,prac,75,1,65,59,3,5.9134199300006,2.318134729999656,6.66012277999835,0.625,0.6,5,0,2,1 1 1 1 1,0 1 1 1 0,1 0 0 0 1
6,2,2,prac,90,3,90,75,2,4.69709413000055,2.4370108300008724,8.05823507999776,0.875,0.8666666666666667,45,0,1.9,9 9 9 9 9,8 8 7 8 8,1 1 2 1 1
6,3,3,prac,60,2,60,75,2,6.74529043000075,3.2533312300001853,4.82905808000032,0.625,0.6222222222222222,45,0,1.9,9 9 9 9 9,4 6 6 8 4,5 3 3 1 5
6,4,4,prac,40,1,30,25,2,5.62906163000116,1.60342533000221,4.56469577999997,0.375,0.4,5,0,1.8,1 1 1 1 1,0 1 1 0 0,1 0 0 1 1
6,5,5,prac,35,2,45,53,1,7.0136282300009,1.985740430001897,8.39347117999932,0.375,0.37777777777777777,45,0,1.8,9 9 9 9 9,3 5 3 4 2,6 4 6 5 7
6,6,6,prac,55,2,55,70,1,6.29642393000177,1.5703009300013946,4.53052887999911,0.625,0.6222222222222222,45,0,2,9 9 9 9 9,4 8 3 6 7,5 1 6 3 2
6,7,7,prac,70,1,65,55,2,5.34639973000048,2.1198206300014135,8.56387478000033,0.625,0.6,5,0,2,1 1 1 1 1,1 0 1 0 1,0 1 0 1 0
6,8,8,prac,85,1,93,99,2,6.27956873000039,4.334867930001565,11.1965423799993,0.875,0.8,5,0,2,1 1 1 1 1,1 1 1 0 1,0 0 0 1 0
6,9,9,prac,8,1,17,24,2,4.57928813000217,1.7355205300027592,4.28311154999938,0.125,0.2,5,0,1.6,1 1 1 1 1,0 0 0 1 0,1 1 1 0 1
6,10,10,prac,93,1,93,94,2,5.91290483000012,3.2188343300003908,3.9946883800003,0.875,0.8,5,1,1.9,1 1 1 1 1,1 1 1 0 1,0 0 0 1 0
6,11,11,prac,5,3,6,20,2,3.26393763000124,2.717497630001162,3.42569337999885,0.125,0.13333333333333333,45,0,1.9,9 9 9 9 9,0 2 1 2 1,9 7 8 7 8
6,12,12,prac,60,1,60,75,1,5.71382642999924,2.8531704300003184,4.86478397999963,0.625,0.6,5,0,1.7,1 1 1 1 1,1 1 0 0 1,0 0 1 1 0
6,13,13,prac,40,1,40,82,1,4.84538803000032,2.103510130000359,12.6637443799991,0.5,0.4,5,1,1.7,1 1 1 1 1,1 0 0 1 0,0 1 1 0 1
6,14,14,prac,99,3,99,98,3,3.67966973000148,1.985698129999946,4.85870127999806,1,1,45,1,2,9 9 9 9 9,9 9 9 9 9,0 0 0 0 0
6,15,15,prac,67,2,62,51,3,5.01325842999904,1.5687113300027704,5.96412068000063,0.625,0.6222222222222222,45,0,1.9,9 9 9 9 9,4 5 7 7 5,5 4 2 2 4
8,1,1,prac,80,3,80,65,1,19.346490910000284,4.2679733099998884,16.995924060000107,0.625,0.6,5,0,1.8,1 1 1 1 1,1 0 1 0 1,0 1 0 1 0
8,2,2,prac,80,NA,0,83,2,[],NA,[],0.625,0.6,5,0,1.6,1 1 1 1 1,1 0 1 1 0,0 1 0 0 1
8,3,3,prac,62,2,67,77,3,8.728352409999843,2.8688955099996747,5.72217615999989,0.625,0.6222222222222222,45,0,1.6,9 9 9 9 9,4 5 7 6 6,5 4 2 3 3
8,4,4,prac,33,2,40,50,2,6.763351409999814,1.6022972099999606,10.093603360000088,0.375,0.37777777777777777,45,0,1.9,9 9 9 9 9,3 5 3 1 5,6 4 6 8 4
8,5,5,prac,20,3,20,19,2,7.295199010000033,1.952796009999929,3.527312660000007,0.5,0.4,5,1,1.8,1 1 1 1 1,1 0 0 1 0,0 1 1 0 1
8,6,6,prac,25,3,25,9,2,14.278168209999421,3.169209110000338,6.492730859999938,0.125,0.13333333333333333,45,0,1.5,9 9 9 9 9,1 0 3 1 1,8 9 6 8 8
8,7,7,prac,88,2,85,73,2,6.962300409999898,2.303741810000247,8.452988949999963,0.875,0.8666666666666667,45,0,1.9,9 9 9 9 9,7 8 8 8 8,2 1 1 1 1
8,8,8,prac,41,3,41,58,3,19.96296061000021,2.9861659100001816,12.963710060000267,0.625,0.6,5,0,2,1 1 1 1 1,1 1 0 0 1,0 0 1 1 0
8,9,9,prac,36,3,32,18,2,10.978385609999805,2.085569509999914,2.4210470500001975,0.125,0.2,5,0,1.9,1 1 1 1 1,0 1 0 0 0,1 0 1 1 1
8,10,10,prac,49,2,49,64,1,5.262588010000854,1.8357197099999212,3.8180483499995717,0.625,0.6222222222222222,45,0,1.6,9 9 9 9 9,4 5 6 7 6,5 4 3 2 3
8,11,11,prac,97,3,97,95,3,15.828780309999274,1.6859679100002722,5.496800160000021,1,1,45,1,1.9,9 9 9 9 9,9 9 9 9 9,0 0 0 0 0
8,12,12,prac,20,3,20,75,1,7.496834210000088,4.253494210000099,9.184911450000072,0.875,0.8,5,1,1.7,1 1 1 1 1,1 1 1 1 0,0 0 0 0 1
8,13,13,prac,40,3,33,25,3,5.828798609999922,1.8191334100001768,14.330068359999586,0.375,0.4,5,0,1.9,1 1 1 1 1,0 1 0 0 1,1 0 1 1 0
8,14,14,prac,80,3,89,97,1,6.812571110000135,2.1690682099997503,13.987404949999927,0.875,0.8,5,0,1.9,1 1 1 1 1,1 1 1 0 1,0 0 0 1 0
8,15,15,prac,71,2,63,54,2,4.6965450099996815,5.83611861000054,7.485525550000602,0.625,0.6222222222222222,45,0,1.9,9 9 9 9 9,6 3 5 6 8,3 6 4 3 1
9,1,1,prac,70,2,60,53,3,15.1967123600002,3.90275986000006,17.8239479600002,0.625,0.6222222222222222,45,0,1.6,9 9 9 9 9,6 6 5 4 7,3 3 4 5 2
9,2,2,prac,100,3,100,99,3,6.41298565999978,2.7017559599999004,5.52424155999961,1,1,45,1,1.7,9 9 9 9 9,9 9 9 9 9,0 0 0 0 0
9,3,3,prac,20,2,10,3,3,14.3949183600002,4.536996659999659,9.35818705999964,0.125,0.13333333333333333,45,0,2,9 9 9 9 9,1 2 1 2 0,8 7 8 7 9
9,4,4,prac,75,3,75,75,2,16.8294128600005,2.337134760000481,6.39309516000003,0.875,0.8,5,1,1.9,1 1 1 1 1,1 1 1 0 1,0 0 0 1 0
9,5,5,prac,60,2,60,76,1,7.84540175999973,3.0019281599998067,6.43122565999965,0.625,0.6,5,0,1.5,1 1 1 1 1,1 0 1 0 1,0 1 0 1 0
9,6,6,prac,40,2,35,25,2,9.72954696000033,2.402127159999509,5.59317525999995,0.375,0.4,5,0,1.6,1 1 1 1 1,0 0 0 1 1,1 1 1 0 0
9,7,7,prac,60,2,70,77,3,10.7459635599998,2.0196642600003543,6.6317122599994,0.625,0.6,5,0,1.9,1 1 1 1 1,0 1 1 1 0,1 0 0 0 1
9,8,8,prac,20,2,20,5,1,8.59630705999962,1.8866823600001226,4.52477696000005,0.125,0.2,5,0,1.7,1 1 1 1 1,0 0 0 0 1,1 1 1 1 0
9,9,9,prac,10,3,10,25,2,7.71310835999975,2.1203649599997334,3.6622549599997,0.875,0.8666666666666667,45,0,1.7,9 9 9 9 9,8 7 7 9 8,1 2 2 0 1
9,10,10,prac,65,2,60,48,2,17.3620255599999,2.6206475599997248,6.1236065600001,0.625,0.6,5,0,1.7,1 1 1 1 1,0 1 1 1 0,1 0 0 0 1
9,11,11,prac,60,2,65,75,1,7.37894686000027,2.4358471600003213,6.62846806000016,0.625,0.6222222222222222,45,0,1.9,9 9 9 9 9,3 7 9 3 6,6 2 0 6 3
9,12,12,prac,80,2,85,96,2,12.49637566,2.5198654600003465,6.42346906000012,0.875,0.8,5,0,1.6,1 1 1 1 1,1 0 1 1 1,0 1 0 0 0
9,13,13,prac,35,2,40,50,2,5.94680676000007,1.9531287599997995,9.02592066000034,0.375,0.37777777777777777,45,0,2,9 9 9 9 9,2 5 2 5 3,7 4 7 4 6
9,14,14,prac,45,2,45,44,1,9.89635835999979,2.1867982600001596,4.69668256000023,0.5,0.4,5,1,1.9,1 1 1 1 1,1 1 0 0 0,0 0 1 1 1
9,15,15,prac,65,2,60,50,2,10.1115829600003,2.9200189600001067,4.89781015999961,0.625,0.6222222222222222,45,0,1.7,9 9 9 9 9,8 5 7 3 5,1 4 2 6 4
13,1,1,prac,90,3,72,48,1,8.69688131999919,4.984502119999888,9.5637017199997,0.875,0.8,5,1,1.9,1 1 1 1 1,0 1 1 1 1,1 0 0 0 0
13,2,2,prac,72,2,64,54,2,8.21257481999965,3.6032020200009356,10.1963775199993,0.625,0.6222222222222222,45,0,1.8,9 9 9 9 9,6 7 5 5 5,3 2 4 4 4
13,3,3,prac,50,3,50,50,1,8.41284201999952,2.4531464199990296,7.22506101999898,0.5,0.4,5,1,1.9,1 1 1 1 1,0 0 1 1 0,1 1 0 0 1
13,4,4,prac,65,2,55,50,3,6.96218021999903,1.9522105199994257,9.56332901999849,0.625,0.6222222222222222,45,0,1.9,9 9 9 9 9,5 5 6 6 6,4 4 3 3 3
13,5,5,prac,94,2,87,78,2,7.46205981999992,3.1178782199986017,12.4969912199995,0.875,0.8,5,0,1.9,1 1 1 1 1,1 0 1 1 1,0 1 0 0 0
13,6,6,prac,7,3,14,23,2,5.44666152000082,2.5354335199999696,4.8856508000008,0.125,0.2,5,0,1.5,1 1 1 1 1,0 0 1 0 0,1 1 0 1 1
13,7,7,prac,25,2,34,43,2,6.78047401999993,2.019458019999547,15.8641910199995,0.375,0.4,5,0,2,1 1 1 1 1,1 0 0 0 1,0 1 1 1 0
13,8,8,prac,37,2,51,55,3,5.87997051999992,2.237036619999344,11.66222432,0.375,0.37777777777777777,45,0,1.6,9 9 9 9 9,2 3 4 3 5,7 6 5 6 4
13,9,9,prac,87,1,77,70,1,9.06240472000081,2.5202375199996823,12.0944083199984,0.625,0.6222222222222222,45,0,1.6,9 9 9 9 9,5 7 5 4 7,4 2 4 5 2
13,10,10,prac,55,2,63,70,2,10.3123182199997,1.6359415199995055,12.1555976199998,0.625,0.6,5,0,1.7,1 1 1 1 1,0 1 1 0 1,1 0 0 1 0
13,11,11,prac,95,3,95,77,1,7.74715011999888,1.919850120000774,5.5836419999996,0.875,0.8666666666666667,45,0,1.7,9 9 9 9 9,7 7 8 9 8,2 2 1 0 1
13,12,12,prac,55,1,70,73,3,11.3951310199991,4.119535720001295,7.62625462000051,0.625,0.6,5,0,1.6,1 1 1 1 1,1 0 1 1 0,0 1 0 0 1
13,13,13,prac,10,3,14,28,1,5.08056302000114,2.068945120000535,7.9972690200002,0.125,0.13333333333333333,45,0,1.8,9 9 9 9 9,2 2 0 1 1,7 7 9 8 8
13,14,14,prac,58,2,67,75,1,11.5285465199995,2.953631020001012,6.6950525200009,0.625,0.6,5,0,1.7,1 1 1 1 1,0 1 1 0 1,1 0 0 1 0
13,15,15,prac,100,3,100,99,3,4.06338731999949,2.7362281200003054,3.19675391999954,1,1,45,1,1.7,9 9 9 9 9,9 9 9 9 9,0 0 0 0 0
14,1,1,prac,20,3,10,3,3,5.11597224999991,1.8787445499999649,9.27654014999985,0.125,0.2,5,0,1.9,1 1 1 1 1,0 0 1 0 0,1 1 0 1 1
14,2,2,prac,10,3,15,25,2,9.08878904999983,2.332480750000286,5.10308129999999,0.125,0.13333333333333333,45,0,1.7,9 9 9 9 9,0 1 1 1 3,9 8 8 8 6
14,3,3,prac,40,3,30,24,3,9.38883364999992,1.9905822499997612,10.2990053499996,0.375,0.4,5,0,1.9,1 1 1 1 1,0 1 1 0 0,1 0 0 1 1
14,4,4,prac,100,3,99,99,3,3.17908705000036,1.6712934500005758,7.97953074999941,1,1,45,1,1.6,9 9 9 9 9,9 9 9 9 9,0 0 0 0 0
14,5,5,prac,80,2,90,97,3,10.32501525,2.313682549999612,8.31203060000007,0.875,0.8,5,0,2,1 1 1 1 1,1 1 0 1 1,0 0 1 0 0
14,6,6,prac,85,2,90,99,3,7.0934607500003,2.790868149999824,11.3577039000002,0.875,0.8666666666666667,45,0,1.6,9 9 9 9 9,8 7 8 8 8,1 2 1 1 1
14,7,7,prac,60,2,68,76,1,7.95532004999995,4.3162109499994585,9.51691590000019,0.625,0.6,5,0,1.9,1 1 1 1 1,0 1 0 1 1,1 0 1 0 0
14,8,8,prac,60,2,70,77,3,4.16314934999946,2.8494611500000246,6.79979504999983,0.625,0.6,5,0,1.8,1 1 1 1 1,0 1 0 1 1,1 0 1 0 0
14,9,9,prac,50,2,60,65,2,8.21862865000003,2.5823507499999323,8.91914955000038,0.625,0.6222222222222222,45,0,1.5,9 9 9 9 9,6 2 5 7 8,3 7 4 2 1
14,10,10,prac,60,2,70,76,2,5.4432089500001,1.407576450000306,11.0374915999996,0.625,0.6,5,0,1.8,1 1 1 1 1,1 0 0 1 1,0 1 1 0 0
14,11,11,prac,70,3,67,53,1,4.38476065000032,2.204963349999616,9.58275404999995,0.625,0.6222222222222222,45,0,1.6,9 9 9 9 9,3 4 6 7 8,6 5 3 2 1
14,12,12,prac,45,2,35,27,2,4.54309534999993,1.5574164499998915,12.8505388500002,0.375,0.37777777777777777,45,0,1.5,9 9 9 9 9,5 4 2 4 2,4 5 7 5 7
14,13,13,prac,55,2,63,72,3,3.93814394999981,1.5661717500001942,9.47552810000025,0.625,0.6222222222222222,45,0,1.8,9 9 9 9 9,6 5 6 7 4,3 4 3 2 5
14,14,14,prac,80,2,80,82,1,5.63916625000002,1.414181149999422,3.46846369999957,0.875,0.8,5,1,1.9,1 1 1 1 1,1 1 1 1 0,0 0 0 0 1
14,15,15,prac,40,2,41,42,2,10.2164030499998,1.7696806500002822,9.91182959999969,0.5,0.4,5,1,1.7,1 1 1 1 1,0 0 0 1 1,1 1 1 0 0
16,1,1,prac,70,1,65,54,2,6.97898032999956,2.2679335300003913,6.98319877999984,0.625,0.6,5,0,1.7,1 1 1 1 1,1 0 1 1 0,0 1 0 0 1
16,2,2,prac,60,2,65,75,2,5.66336132999959,2.4026093299999047,6.21648318000007,0.625,0.6222222222222222,45,0,1.8,9 9 9 9 9,6 2 7 5 8,3 7 2 4 1
16,3,3,prac,85,1,77,60,1,8.99686212999995,2.401980929999354,9.28372344999934,0.875,0.8,5,0,1.5,1 1 1 1 1,1 1 1 1 0,0 0 0 0 1
16,4,4,prac,80,1,80,80,3,8.73019062999992,2.103451729999506,5.21682938000004,0.875,0.8,5,1,1.6,1 1 1 1 1,0 1 1 1 1,1 0 0 0 0
16,5,5,prac,17,2,15,1,1,11.9122351299998,2.5520132299993747,4.05989037999962,0.125,0.13333333333333333,45,0,2,9 9 9 9 9,2 0 0 1 3,7 9 9 8 6
16,6,6,prac,5,1,15,20,2,11.0784063299998,2.1354738300001372,3.31803244999946,0.125,0.2,5,0,1.9,1 1 1 1 1,0 0 1 0 0,1 1 0 1 1
16,7,7,prac,40,1,45,82,1,9.87890113000003,2.402591630000188,6.53083717999925,0.5,0.4,5,1,1.7,1 1 1 1 1,1 1 0 0 0,0 0 1 1 1
16,8,8,prac,100,3,99,98,3,3.36222323000038,4.3179070299997875,3.59869957999945,1,1,45,1,2,9 9 9 9 9,9 9 9 9 9,0 0 0 0 0
16,9,9,prac,30,2,40,48,3,9.87888052999961,2.1533956299995225,4.88334637999969,0.625,0.6222222222222222,45,0,1.6,9 9 9 9 9,7 7 5 5 4,2 2 4 4 5
16,10,10,prac,60,1,69,75,3,8.42962222999995,2.233678329999748,5.66500827999971,0.625,0.6,5,0,1.6,1 1 1 1 1,0 0 1 1 1,1 1 0 0 0
16,11,11,prac,75,2,80,93,1,3.97854502999917,2.2197008299995105,3.88398245000008,0.875,0.8666666666666667,45,0,1.9,9 9 9 9 9,7 9 7 7 9,2 0 2 2 0
16,12,12,prac,50,2,55,67,1,4.16180792999967,1.9516148300003806,4.23121648000006,0.625,0.6222222222222222,45,0,1.7,9 9 9 9 9,8 4 6 5 5,1 5 3 4 4
16,13,13,prac,20,1,23,37,1,9.29655063000018,2.3870408300003874,6.13185727999962,0.375,0.4,5,0,1.5,1 1 1 1 1,1 0 1 0 0,0 1 0 1 1
16,14,14,prac,44,2,35,27,2,5.61255763000008,2.170115429999896,8.68292067999937,0.375,0.37777777777777777,45,0,1.5,9 9 9 9 9,2 5 3 4 3,7 4 6 5 6
16,15,15,prac,75,1,64,60,1,10.3615771300001,2.2858452299997225,5.01722014999996,0.625,0.6,5,0,1.9,1 1 1 1 1,1 1 1 0 0,0 0 0 1 1
17,1,1,prac,55,1,60,73,2,3.74611303999995,2.351883039999848,6.09346143999983,0.625,0.6222222222222222,45,0,1.8,9 9 9 9 9,6 7 4 6 5,3 2 5 3 4
17,2,2,prac,40,1,40,22,1,8.49583594000001,3.3202971399996386,4.36208393999982,0.375,0.37777777777777777,45,0,1.6,9 9 9 9 9,3 4 5 2 3,6 5 4 7 6
17,3,3,prac,50,2,50,66,2,4.44710764000001,3.1520897399998375,3.2282637400001,0.625,0.6,5,0,2,1 1 1 1 1,0 1 1 0 1,1 0 0 1 0
17,4,4,prac,70,2,70,53,3,6.51245403999997,2.6524190399998133,3.71643203999975,0.625,0.6222222222222222,45,0,1.5,9 9 9 9 9,2 6 6 8 6,7 3 3 1 3
17,5,5,prac,80,2,80,78,2,6.53038003999995,2.9362300399998276,3.79421753999986,0.875,0.8,5,1,1.9,1 1 1 1 1,1 0 1 1 1,0 1 0 0 0
17,6,6,prac,20,2,20,5,1,8.52832243999978,2.252363639999885,2.89349623999988,0.125,0.2,5,0,1.8,1 1 1 1 1,0 1 0 0 0,1 0 1 1 1
17,7,7,prac,20,2,20,36,2,8.09501593999994,2.735718540000107,2.39773353999999,0.375,0.4,5,0,1.8,1 1 1 1 1,0 1 0 0 1,1 0 1 1 0
17,8,8,prac,100,3,99,99,3,2.61283203999983,2.302659740000081,4.83104823999997,1,1,45,1,1.9,9 9 9 9 9,9 9 9 9 9,0 0 0 0 0
17,9,9,prac,53,1,55,70,1,5.41346474000011,2.0854404399999567,4.03076463999992,0.625,0.6222222222222222,45,0,2,9 9 9 9 9,7 4 8 4 5,2 5 1 5 4
17,10,10,prac,10,2,10,28,1,3.76293854000005,2.535801539999966,3.12448934000008,0.125,0.13333333333333333,45,0,1.8,9 9 9 9 9,1 1 3 0 1,8 8 6 9 8
17,11,11,prac,60,2,60,76,1,5.59555503999991,2.38634363999995,3.66355963999968,0.625,0.6,5,0,1.6,1 1 1 1 1,1 0 1 1 0,0 1 0 0 1
17,12,12,prac,40,2,40,40,3,12.3963838399998,2.5032294399998136,2.85812703999977,0.5,0.4,5,1,1.5,1 1 1 1 1,0 0 0 1 1,1 1 1 0 0
17,13,13,prac,85,1,85,99,2,4.09617393999997,3.8031593399998656,3.89656663999995,0.875,0.8666666666666667,45,0,1.6,9 9 9 9 9,9 8 6 8 8,0 1 3 1 1
17,14,14,prac,80,2,84,96,2,6.29516493999995,2.2015801399998054,4.42935763999981,0.875,0.8,5,0,1.7,1 1 1 1 1,1 1 1 0 1,0 0 0 1 0
17,15,15,prac,56,2,60,71,3,4.19567123999991,2.352540939999926,3.52993274000005,0.625,0.6,5,0,1.7,1 1 1 1 1,0 1 1 0 1,1 0 0 1 0
23,1,1,prac,100,3,100,98,3,2.96353585000088,1.8529704499997024,9.230405799999971,1,1,45,1,2,9 9 9 9 9,9 9 9 9 9,0 0 0 0 0
23,2,2,prac,40,3,40,25,2,8.17976015000022,1.720044050000979,7.194938800000273,0.375,0.4,5,0,1.7,1 1 1 1 1,1 0 1 0 0,0 1 0 1 1
23,3,3,prac,40,2,33,22,1,7.72927524999977,2.252377549999437,8.183362050000142,0.375,0.37777777777777777,45,0,2,9 9 9 9 9,2 2 2 6 5,7 7 7 3 4
23,4,4,prac,80,2,65,32,1,8.49611985000047,2.1196763500001907,7.730944399999316,0.875,0.8,5,1,1.7,1 1 1 1 1,1 1 1 1 0,0 0 0 0 1
23,5,5,prac,20,3,12,2,1,7.61372465000022,2.0207669499995973,[],0.125,0.2,5,0,1.9,1 1 1 1 1,0 0 0 0 1,1 1 1 1 0
23,6,6,prac,60,3,70,75,2,12.3784925500004,1.9870799500004068,6.818083999999544,0.625,0.6,5,0,1.5,1 1 1 1 1,1 0 0 1 1,0 1 1 0 0
23,7,7,prac,22,2,15,6,2,12.1795315499994,1.5865299500010224,7.3592766000001575,0.125,0.13333333333333333,45,0,1.6,9 9 9 9 9,0 1 2 1 2,9 8 7 8 7
23,8,8,prac,48,2,57,65,1,2.56210244999966,2.0682795499997155,13.76191690000087,0.625,0.6222222222222222,45,0,1.6,9 9 9 9 9,5 6 5 5 7,4 3 4 4 2
23,9,9,prac,80,3,88,97,1,5.59545995000008,2.1020718499994473,5.724072800000613,0.875,0.8,5,0,1.6,1 1 1 1 1,1 1 1 1 0,0 0 0 0 1
23,10,10,prac,60,3,68,75,1,5.39600065000013,1.8540177499999118,16.86368290000064,0.625,0.6,5,0,1.5,1 1 1 1 1,1 1 0 1 0,0 0 1 0 1
23,11,11,prac,59,2,70,75,3,2.69692355000007,1.6200825500000064,10.995989000000009,0.625,0.6222222222222222,45,0,1.5,9 9 9 9 9,6 7 5 4 6,3 2 4 5 3
23,12,12,prac,60,3,70,75,3,3.11265305000052,1.4364365499986889,5.983491549999599,0.625,0.6,5,0,1.5,1 1 1 1 1,1 1 0 0 1,0 0 1 1 0
23,13,13,prac,50,1,59,67,2,4.49594075000005,3.8529585500000394,9.130009699999391,0.625,0.6222222222222222,45,0,1.9,9 9 9 9 9,4 5 4 8 7,5 4 5 1 2
23,14,14,prac,15,1,30,32,3,11.7956950500002,1.503500750000967,5.953926000000138,0.875,0.8666666666666667,45,0,1.9,9 9 9 9 9,8 8 6 9 8,1 1 3 0 1
23,15,15,prac,40,3,40,40,2,5.9964092500004,1.5531863500000327,2.731421900000896,0.5,0.4,5,1,2,1 1 1 1 1,0 0 1 0 1,1 1 0 1 0
27,1,1,prac,40,1,26,23,2,8.39548301999957,1.968206119999877,9.85611842000026,0.375,0.4,5,0,1.6,1 1 1 1 1,1 0 0 0 1,0 1 1 1 0
27,2,2,prac,65,2,55,50,3,5.96242152000013,1.4529552199999216,9.31576352000002,0.625,0.6222222222222222,45,0,1.7,9 9 9 9 9,6 7 5 5 5,3 2 4 4 4
27,3,3,prac,65,1,60,50,1,7.04590982000013,2.0194953200000327,7.73197222000022,0.625,0.6,5,0,1.7,1 1 1 1 1,1 1 0 1 0,0 0 1 0 1
27,4,4,prac,55,1,70,72,3,4.84652821999998,1.6356200199998057,5.19818912000028,0.625,0.6,5,0,1.5,1 1 1 1 1,1 0 1 0 1,0 1 0 1 0
27,5,5,prac,55,1,69,73,2,5.04705162000027,1.785422820000349,8.33094812000013,0.625,0.6,5,0,1.6,1 1 1 1 1,0 1 1 0 1,1 0 0 1 0
27,6,6,prac,65,1,50,24,1,4.74663181999972,2.2361910199999784,7.43012122000005,0.5,0.4,5,1,1.7,1 1 1 1 1,0 0 1 0 1,1 1 0 1 0
27,7,7,prac,75,2,68,31,1,5.06343861999994,5.3860435200001575,9.69611722000036,0.875,0.8,5,1,1.9,1 1 1 1 1,0 1 1 1 1,1 0 0 0 0
27,8,8,prac,70,3,69,54,2,6.94546732000003,1.5017445199998747,10.9982239199999,0.625,0.6222222222222222,45,0,1.7,9 9 9 9 9,2 7 8 5 6,7 2 1 4 3
27,9,9,prac,75,1,75,93,1,4.32878241999992,1.335981920000222,7.19659281999975,0.875,0.8,5,0,1.8,1 1 1 1 1,1 1 1 0 1,0 0 0 1 0
27,10,10,prac,48,2,40,30,2,6.4955340199997,1.603554620000068,7.09831131999999,0.375,0.37777777777777777,45,0,1.9,9 9 9 9 9,6 6 3 1 1,3 3 6 8 8
27,11,11,prac,88,3,88,70,2,6.59610151999982,3.3177339199999096,4.52578621999987,0.875,0.8666666666666667,45,0,1.9,9 9 9 9 9,8 8 9 9 5,1 1 0 0 4
27,12,12,prac,98,3,100,97,3,9.99547051999957,1.801743720000104,3.66529992000051,1,1,45,1,1.5,9 9 9 9 9,9 9 9 9 9,0 0 0 0 0
27,13,13,prac,12,3,20,29,3,3.41372701999967,1.4197499199999584,6.03000341999996,0.125,0.13333333333333333,45,0,1.7,9 9 9 9 9,1 1 1 3 0,8 8 8 6 9
27,14,14,prac,20,1,10,3,2,12.9121008200002,1.6848919199997,5.06044231999954,0.125,0.2,5,0,1.7,1 1 1 1 1,0 0 0 0 1,1 1 1 1 0
27,15,15,prac,60,2,65,75,1,3.07861851999951,1.553140419999636,6.43020692000027,0.625,0.6222222222222222,45,0,1.7,9 9 9 9 9,8 3 5 6 6,1 6 4 3 3
28,1,1,prac,40,3,40,57,1,11.245523089999779,6.269712389999313,7.589753939999355,0.625,0.6,5,0,1.6,1 1 1 1 1,1 1 0 1 0,0 0 1 0 1
28,2,2,prac,55,NA,0,83,3,[],NA,[],0.125,0.2,5,0,1.8,1 1 1 1 1,0 0 1 0 0,1 1 0 1 1
28,3,3,prac,50,3,56,65,3,7.512274389999675,2.9536122900003647,11.091419040000346,0.625,0.6222222222222222,45,0,1.8,9 9 9 9 9,7 5 6 4 6,2 4 3 5 3
28,4,4,prac,42,2,40,40,3,13.3283890900002,4.220313290000377,5.325550339999609,0.5,0.4,5,1,1.9,1 1 1 1 1,0 1 1 0 0,1 0 0 1 1
28,5,5,prac,55,3,59,72,2,10.145149589999619,5.735374589999992,7.130992339999466,0.625,0.6,5,0,1.5,1 1 1 1 1,1 0 1 0 1,0 1 0 1 0
28,6,6,prac,100,3,100,98,3,3.2452407900000253,2.2522794900005465,8.46418623999989,1,1,45,1,1.7,9 9 9 9 9,9 9 9 9 9,0 0 0 0 0
28,7,7,prac,58,3,65,75,3,7.128492689999348,3.0032553899995946,7.9821289399992565,0.625,0.6,5,0,1.8,1 1 1 1 1,0 1 1 0 1,1 0 0 1 0
28,8,8,prac,50,2,50,65,1,6.729933690000053,3.052151689999846,8.332082039999932,0.625,0.6222222222222222,45,0,1.6,9 9 9 9 9,5 7 5 7 4,4 2 4 2 5
28,9,9,prac,50,2,54,65,2,4.730262490000314,3.6684891899999457,5.3307895399998415,0.625,0.6222222222222222,45,0,1.6,9 9 9 9 9,8 6 7 5 2,1 3 2 4 7
28,10,10,prac,35,2,37,50,2,9.346299490000547,2.6518742900002508,7.198334439999144,0.375,0.37777777777777777,45,0,1.6,9 9 9 9 9,3 5 5 3 1,6 4 4 6 8
28,11,11,prac,85,2,85,68,1,17.412691389999964,2.2029222899996057,6.9969167399999606,0.875,0.8666666666666667,45,0,1.8,9 9 9 9 9,7 7 9 8 8,2 2 0 1 1
28,12,12,prac,85,3,89,99,2,7.745042889999695,4.43665368999973,9.396928639999715,0.875,0.8,5,0,1.6,1 1 1 1 1,1 1 1 1 0,0 0 0 0 1
28,13,13,prac,19,2,5,3,3,7.01296868999998,4.818556889999854,8.851891850000356,0.125,0.13333333333333333,45,0,1.9,9 9 9 9 9,1 2 1 1 1,8 7 8 8 8
28,14,14,prac,80,3,80,80,3,9.795822090000001,2.653880090000257,4.195630839999922,0.875,0.8,5,1,1.9,1 1 1 1 1,0 1 1 1 1,1 0 0 0 0
28,15,15,prac,40,3,40,25,1,9.579058589999931,2.6858330899995053,3.279308140000012,0.375,0.4,5,0,1.8,1 1 1 1 1,1 0 0 0 1,0 1 1 1 0
29,1,1,prac,40,2,35,23,2,6.245736200000465,1.6524651999989146,8.519128500000079,0.375,0.37777777777777777,45,0,1.9,9 9 9 9 9,2 3 5 3 4,7 6 4 6 5
29,2,2,prac,80,3,80,95,3,10.696459100000538,1.5521920000001046,3.8535938000004535,0.875,0.8,5,0,1.9,1 1 1 1 1,1 0 1 1 1,0 1 0 0 0
29,3,3,prac,60,2,65,76,3,4.946392700000615,2.270725599999423,9.959978699999738,0.625,0.6222222222222222,45,0,1.6,9 9 9 9 9,6 6 4 6 6,3 3 5 3 3
29,4,4,prac,100,3,100,99,3,3.2136071999993874,1.5358803999988595,8.753744800000277,1,1,45,1,1.6,9 9 9 9 9,9 9 9 9 9,0 0 0 0 0
29,5,5,prac,20,2,10,2,3,16.06236119999903,2.4034357000000455,2.9918979000003674,0.125,0.2,5,0,1.9,1 1 1 1 1,0 0 0 1 0,1 1 1 0 1
29,6,6,prac,15,2,15,1,1,14.228526099998817,1.6023125000001528,2.987357100000736,0.125,0.13333333333333333,45,0,1.9,9 9 9 9 9,3 0 1 1 1,6 9 8 8 8
29,7,7,prac,50,3,55,67,1,3.3297198000009303,1.4204086999998253,5.419612900000175,0.625,0.6222222222222222,45,0,1.9,9 9 9 9 9,3 8 6 5 6,6 1 3 4 3
29,8,8,prac,55,2,55,54,2,12.778511599999547,2.535831799999869,3.620900000000802,0.5,0.4,5,1,1.9,1 1 1 1 1,1 0 1 0 0,0 1 0 1 1
29,9,9,prac,80,3,20,30,1,13.728797699998722,2.1538608999990174,5.79263390000051,0.875,0.8,5,1,1.6,1 1 1 1 1,1 1 0 1 1,0 0 1 0 0
29,10,10,prac,27,NA,0,48,1,[],NA,[],0.375,0.4,5,0,1.9,1 1 1 1 1,0 0 0 1 1,1 1 1 0 0
29,11,11,prac,70,2,70,55,2,11.061819099999411,1.8514684000010675,4.116011500000241,0.625,0.6,5,0,1.7,1 1 1 1 1,0 1 0 1 1,1 0 1 0 0
29,12,12,prac,65,3,65,50,2,7.096534900000734,1.7188779999996768,3.6644274999998743,0.625,0.6222222222222222,45,0,1.7,9 9 9 9 9,5 5 7 6 5,4 4 2 3 4
29,13,13,prac,65,2,65,50,1,8.212804200000392,1.7190219000003708,2.984124999999949,0.625,0.6,5,0,1.9,1 1 1 1 1,1 1 1 0 0,0 0 0 1 1
29,14,14,prac,70,2,60,52,3,3.729267900001105,1.6703438000004098,3.5977704999995694,0.625,0.6,5,0,1.8,1 1 1 1 1,0 1 0 1 1,1 0 1 0 0
29,15,15,prac,10,2,5,26,2,4.162105200000951,1.5690473999993628,2.6987325000000055,0.875,0.8666666666666667,45,0,1.8,9 9 9 9 9,8 6 8 8 9,1 3 1 1 0
30,1,1,prac,20,3,10,2,2,5.980016030000115,3.619039229999771,12.85077565000006,0.125,0.2,5,0,1.6,1 1 1 1 1,1 0 0 0 0,0 1 1 1 1
30,2,2,prac,40,1,40,40,3,14.346798730000046,4.3698506299999735,3.5286575799998445,0.5,0.4,5,1,1.7,1 1 1 1 1,0 1 0 0 1,1 0 1 1 0
30,3,3,prac,15,3,15,1,2,7.730268030000161,1.7202076300000044,10.384166249999907,0.125,0.13333333333333333,45,0,1.7,9 9 9 9 9,1 3 0 2 0,8 6 9 7 9
30,4,4,prac,50,2,50,65,1,4.17908642999987,1.3371567300000606,3.8831064800001514,0.625,0.6222222222222222,45,0,1.9,9 9 9 9 9,8 4 6 4 6,1 5 3 5 3
30,5,5,prac,60,1,70,75,2,6.697012330000007,1.718494429999737,6.48694004999993,0.625,0.6,5,0,1.7,1 1 1 1 1,0 1 0 1 1,1 0 1 0 0
30,6,6,prac,75,3,75,60,2,8.446457730000247,1.369099629999937,3.119457850000117,0.625,0.6222222222222222,45,0,1.9,9 9 9 9 9,5 5 7 8 3,4 4 2 1 6
30,7,7,prac,60,1,69,75,1,4.063809129999754,2.5531801300001007,9.431540779999978,0.625,0.6,5,0,1.7,1 1 1 1 1,1 0 1 1 0,0 1 0 0 1
30,8,8,prac,90,3,90,72,2,9.362520629999608,1.5873951300000044,6.026762579999968,0.875,0.8666666666666667,45,0,1.6,9 9 9 9 9,8 7 9 6 9,1 2 0 3 0
30,9,9,prac,40,1,25,25,3,5.113317430000052,1.4356873300000643,10.186683349999612,0.375,0.4,5,0,1.6,1 1 1 1 1,1 0 1 0 0,0 1 0 1 1
30,10,10,prac,79,NA,0,85,3,[],NA,[],0.625,0.6222222222222222,45,0,2,9 9 9 9 9,5 7 4 7 5,4 2 5 2 4
30,11,11,prac,80,1,80,18,1,5.379324530000304,2.1697690300004524,2.9317463799998222,0.875,0.8,5,1,1.9,1 1 1 1 1,1 1 1 0 1,0 0 0 1 0
30,12,12,prac,60,1,68,75,3,2.84711472999993,1.5695034299999406,6.295487679999724,0.625,0.6,5,0,1.8,1 1 1 1 1,1 1 0 0 1,0 0 1 1 0
30,13,13,prac,40,3,40,24,2,4.5622536299999865,1.5856908300002033,3.784159350000209,0.375,0.37777777777777777,45,0,1.7,9 9 9 9 9,4 4 5 1 3,5 5 4 8 6
30,14,14,prac,100,3,99,99,3,2.428960029999871,1.537181830000236,6.516013479999856,1,1,45,1,1.6,9 9 9 9 9,9 9 9 9 9,0 0 0 0 0
30,15,15,prac,80,1,90,96,3,3.2125687300001573,1.7369089300002543,3.0499360799994975,0.875,0.8,5,0,1.9,1 1 1 1 1,1 1 1 1 0,0 0 0 0 1
32,1,1,prac,34,NA,0,84,3,[],NA,[],0.375,0.4,5,0,1.7,1 1 1 1 1,0 1 1 0 0,1 0 0 1 1
32,2,2,prac,60,3,65,75,3,7.979952010000488,2.402102410000225,18.061909760000617,0.625,0.6,5,0,1.6,1 1 1 1 1,1 0 0 1 1,0 1 1 0 0
32,3,3,prac,17,2,10,1,3,12.495825809999587,3.603108410000459,12.429345459999695,0.125,0.2,5,0,1.7,1 1 1 1 1,1 0 0 0 0,0 1 1 1 1
32,4,4,prac,80,2,75,65,2,9.245298609999736,2.601788110000598,11.829634360000455,0.625,0.6222222222222222,45,0,1.7,9 9 9 9 9,3 5 5 6 9,6 4 4 3 0
32,5,5,prac,40,2,40,82,1,12.296317909999743,2.0204872099998283,4.363304160000098,0.5,0.4,5,1,2,1 1 1 1 1,0 0 1 0 1,1 1 0 1 0
32,6,6,prac,99,2,98,97,3,9.228465610000057,3.6037400099999104,11.617727249999916,1,1,45,1,1.9,9 9 9 9 9,9 9 9 9 9,0 0 0 0 0
32,7,7,prac,80,3,80,80,2,11.229550710000694,2.0697741099993436,4.3914399599993885,0.875,0.8,5,1,1.9,1 1 1 1 1,0 1 1 1 1,1 0 0 0 0
32,8,8,prac,88,2,78,72,3,9.97927000999971,1.7526796099996318,13.749657360000128,0.875,0.8666666666666667,45,0,1.7,9 9 9 9 9,8 7 9 7 8,1 2 0 2 1
32,9,9,prac,42,1,32,24,2,12.71266450999974,2.370289710000179,13.625469559999601,0.375,0.37777777777777777,45,0,1.6,9 9 9 9 9,5 3 2 3 4,4 6 7 6 5
32,10,10,prac,58,2,70,75,3,6.495888909999394,1.7183404100001098,11.252537349999784,0.625,0.6222222222222222,45,0,1.6,9 9 9 9 9,7 5 7 5 4,2 4 2 4 5
32,11,11,prac,18,2,10,3,3,8.412864609999815,1.7699358100003337,9.585779849999653,0.125,0.13333333333333333,45,0,1.5,9 9 9 9 9,1 0 1 3 1,8 9 8 6 8
32,12,12,prac,40,3,40,55,1,7.078415210000003,1.4365296100004343,6.6978709599993635,0.625,0.6,5,0,2,1 1 1 1 1,0 1 1 1 0,1 0 0 0 1
32,13,13,prac,75,1,73,60,1,16.695763209999768,1.652663009999742,7.43029136000041,0.625,0.6222222222222222,45,0,1.6,9 9 9 9 9,7 6 4 8 3,2 3 5 1 6
32,14,14,prac,60,3,65,75,2,11.278191809999953,1.48706760999994,4.729922859999533,0.625,0.6,5,0,1.8,1 1 1 1 1,1 1 0 1 0,0 0 1 0 1
32,15,15,prac,80,3,90,95,3,5.51322940999944,1.919833409999228,4.497938959999374,0.875,0.8,5,0,2,1 1 1 1 1,1 1 0 1 1,0 0 1 0 0
33,1,1,prac,37,2,33,20,3,10.4289834299998,2.385663630000181,5.52550598000016,0.375,0.37777777777777777,45,0,1.6,9 9 9 9 9,3 5 5 1 3,6 4 4 8 6
33,2,2,prac,65,1,65,50,1,4.94595982999999,3.037026230000265,4.36454208000009,0.625,0.6,5,0,1.9,1 1 1 1 1,0 0 1 1 1,1 1 0 0 0
33,3,3,prac,67,1,65,51,2,11.41214453,1.620566030000191,5.35747018000029,0.625,0.6,5,0,1.8,1 1 1 1 1,1 1 1 0 0,0 0 0 1 1
33,4,4,prac,70,2,68,54,2,3.36245672999985,1.585742929999924,6.92905898000026,0.625,0.6222222222222222,45,0,1.5,9 9 9 9 9,6 5 6 5 6,3 4 3 4 3
33,5,5,prac,29,1,40,80,1,9.66164693000064,1.6041993300000286,10.6923197800002,0.5,0.4,5,1,1.9,1 1 1 1 1,0 0 1 0 1,1 1 0 1 0
33,6,6,prac,80,2,85,95,1,5.37914893000016,1.4190597300002992,5.51680658000032,0.875,0.8666666666666667,45,0,1.6,9 9 9 9 9,9 6 8 8 8,0 3 1 1 1
33,7,7,prac,79,2,79,80,3,4.87937942999997,3.087166729999808,4.49624607999976,0.875,0.8,5,1,1.6,1 1 1 1 1,1 0 1 1 1,0 1 0 0 0
33,8,8,prac,95,3,95,95,3,3.47989692999954,1.636274030000095,3.16374128000052,1,1,45,1,1.5,9 9 9 9 9,9 9 9 9 9,0 0 0 0 0
33,9,9,prac,78,2,81,93,1,5.02888102999987,1.602263530000073,4.82980328000031,0.875,0.8,5,0,1.8,1 1 1 1 1,1 1 1 0 1,0 0 0 1 0
33,10,10,prac,15,2,15,1,2,5.69656513000018,1.720518229999925,3.76425658000016,0.125,0.13333333333333333,45,0,1.7,9 9 9 9 9,0 2 0 3 1,9 7 9 6 8
33,11,11,prac,60,2,67,75,3,5.48040493000008,1.6040139299998373,4.0969425799999,0.625,0.6,5,0,1.7,1 1 1 1 1,1 0 1 0 1,0 1 0 1 0
33,12,12,prac,15,2,15,1,2,2.97975813000039,1.735559530000046,3.76342568000018,0.125,0.2,5,0,2,1 1 1 1 1,0 0 0 0 1,1 1 1 1 0
33,13,13,prac,65,3,62,50,3,4.34705692999933,1.4365701299998364,6.03042068000013,0.625,0.6222222222222222,45,0,1.7,9 9 9 9 9,5 5 5 6 7,4 4 4 3 2
33,14,14,prac,23,2,30,40,2,6.41279103000034,1.3865519300002234,5.69856978000007,0.375,0.4,5,0,1.5,1 1 1 1 1,1 0 0 1 0,0 1 1 0 1
33,15,15,prac,61,3,61,76,1,3.99533543000007,3.0027968300000794,3.89778377999983,0.625,0.6222222222222222,45,0,1.9,9 9 9 9 9,5 7 4 7 5,4 2 5 2 4
34,1,1,prac,39,2,49,55,3,5.66354684999988,2.784128950000195,3.46284990000095,0.625,0.6222222222222222,45,0,1.7,9 9 9 9 9,7 6 6 4 5,2 3 3 5 4
34,2,2,prac,42,2,34,25,2,5.36259985000106,1.9526337499992223,2.53010710000126,0.375,0.37777777777777777,45,0,1.7,9 9 9 9 9,1 4 4 4 4,8 5 5 5 5
34,3,3,prac,9,3,10,25,2,4.37949084999946,2.086183450000135,2.59356060000027,0.125,0.13333333333333333,45,0,2,9 9 9 9 9,0 0 3 3 0,9 9 6 6 9
34,4,4,prac,20,3,15,4,1,4.68038514999989,2.5366510499998185,2.16205329999957,0.125,0.2,5,0,1.6,1 1 1 1 1,0 0 1 0 0,1 1 0 1 1
34,5,5,prac,70,2,60,55,2,6.67882064999958,1.3025103500012847,3.42854660000103,0.625,0.6,5,0,1.9,1 1 1 1 1,1 1 0 1 0,0 0 1 0 1
34,6,6,prac,60,1,73,75,3,5.63038655000037,1.635550649999459,4.13023380000141,0.625,0.6,5,0,1.7,1 1 1 1 1,0 1 1 0 1,1 0 0 1 0
34,7,7,prac,40,2,30,24,3,5.76202064999961,1.8022014500002115,3.09748880000097,0.375,0.4,5,0,1.5,1 1 1 1 1,1 0 0 1 0,0 1 1 0 1
34,8,8,prac,70,2,60,9,1,2.61381255000015,2.569882749999124,4.46355230000154,0.875,0.8,5,1,1.8,1 1 1 1 1,1 1 1 1 0,0 0 0 0 1
34,9,9,prac,80,3,80,64,1,5.44519854999908,2.3348865500011016,5.36213510000107,0.625,0.6222222222222222,45,0,2,9 9 9 9 9,6 6 6 7 3,3 3 3 2 6
34,10,10,prac,60,1,69,75,2,2.42896564999955,1.5519544499993572,3.03144599999905,0.625,0.6222222222222222,45,0,1.7,9 9 9 9 9,4 7 7 5 5,5 2 2 4 4
34,11,11,prac,92,3,90,75,3,3.06232024999917,1.9519925499998863,3.46050130000003,0.875,0.8666666666666667,45,0,1.7,9 9 9 9 9,9 8 9 6 7,0 1 0 3 2
34,12,12,prac,30,2,30,28,1,4.99651214999994,1.553417150000314,2.93023980000089,0.5,0.4,5,1,1.9,1 1 1 1 1,0 1 1 0 0,1 0 0 1 1
34,13,13,prac,75,1,79,93,1,5.72837764999986,1.8849897500003863,3.83057509999981,0.875,0.8,5,0,2,1 1 1 1 1,1 1 0 1 1,0 0 1 0 0
34,14,14,prac,100,3,100,98,3,3.01331445000051,1.7362216499996066,2.35938189999979,1,1,45,1,1.7,9 9 9 9 9,9 9 9 9 9,0 0 0 0 0
34,15,15,prac,65,2,58,50,1,5.74555235000025,1.585087850000491,3.49660399999993,0.625,0.6,5,0,1.6,1 1 1 1 1,0 0 1 1 1,1 1 0 0 0
36,1,1,prac,75,2,70,30,1,10.7120462600001,1.619794459999639,9.725077260000035,0.875,0.8,5,1,1.9,1 1 1 1 1,1 0 1 1 1,0 1 0 0 0
36,2,2,prac,60,2,63,76,2,7.06362485999989,3.303590960000065,3.5933601599999747,0.625,0.6222222222222222,45,0,1.9,9 9 9 9 9,4 6 5 6 7,5 3 4 3 2
36,3,3,prac,55,2,55,72,3,5.51373746000013,1.5193415600001572,3.7289947599999778,0.625,0.6,5,0,1.7,1 1 1 1 1,1 0 1 0 1,0 1 0 1 0
36,4,4,prac,90,2,87,75,2,8.36309446000018,10.28622815999961,8.624841959999912,0.125,0.13333333333333333,45,0,1.8,9 9 9 9 9,1 1 0 3 1,8 8 9 6 8
36,5,5,prac,58,2,58,75,2,17.7800057600002,1.503700059999801,3.8294894600001044,0.625,0.6,5,0,1.9,1 1 1 1 1,1 0 0 1 1,0 1 1 0 0
36,6,6,prac,40,2,40,42,2,8.52966405999996,1.2202419599998393,6.062990160000027,0.5,0.4,5,1,1.5,1 1 1 1 1,0 1 0 1 0,1 0 1 0 1
36,7,7,prac,98,3,98,98,3,7.31191576000015,1.4189744600000722,2.7960315599998466,1,1,45,1,2,9 9 9 9 9,9 9 9 9 9,0 0 0 0 0
36,8,8,prac,30,3,35,46,3,14.4621241600003,2.0861386599999605,5.956593559999874,0.375,0.37777777777777777,45,0,1.5,9 9 9 9 9,3 3 3 3 5,6 6 6 6 4
36,9,9,prac,37,2,42,52,1,12.3118150600001,1.40308175999985,[],0.375,0.4,5,0,2,1 1 1 1 1,1 1 0 0 0,0 0 1 1 1
36,10,10,prac,78,3,75,60,3,4.76240796000002,3.3181638599999133,5.050011559999803,0.625,0.6222222222222222,45,0,1.7,9 9 9 9 9,7 7 3 4 7,2 2 6 5 2
36,11,11,prac,20,2,20,5,2,9.37852385999986,3.1019066599999405,3.8911339599999337,0.125,0.2,5,0,2,1 1 1 1 1,0 0 1 0 0,1 1 0 1 1
36,12,12,prac,92,2,92,77,1,10.7802434599998,2.0522577599997476,3.931625160000067,0.875,0.8666666666666667,45,0,1.9,9 9 9 9 9,9 8 8 6 8,0 1 1 3 1
36,13,13,prac,86,3,86,70,1,9.88004565999972,1.419231659999923,4.4955638599999475,0.625,0.6222222222222222,45,0,1.9,9 9 9 9 9,3 6 7 7 5,6 3 2 2 4
36,14,14,prac,80,2,80,98,3,7.54606506000005,3.152728460000162,4.38260146000016,0.875,0.8,5,0,2,1 1 1 1 1,1 1 1 1 0,0 0 0 0 1
36,15,15,prac,60,2,60,75,1,8.26180655999974,1.2198739600000863,3.364458859999786,0.625,0.6,5,0,1.6,1 1 1 1 1,1 1 1 0 0,0 0 0 1 1
37,1,1,prac,90,2,90,73,2,8.86224277999963,1.9360114799997064,6.49431908000042,0.875,0.8666666666666667,45,0,1.6,9 9 9 9 9,8 9 7 7 8,1 0 2 2 1
37,2,2,prac,47,2,42,29,3,6.79557398000043,3.5362918799996805,8.41950869999982,0.375,0.37777777777777777,45,0,1.6,9 9 9 9 9,2 5 2 3 5,7 4 7 6 4
37,3,3,prac,59,2,62,75,2,5.74610067999947,1.8865573800003403,5.2846684000001,0.625,0.6222222222222222,45,0,1.7,9 9 9 9 9,4 7 6 4 7,5 2 3 5 2
37,4,4,prac,62,1,70,77,3,5.8951130800001,1.8035240799995336,5.46525478000012,0.625,0.6222222222222222,45,0,1.9,9 9 9 9 9,7 6 7 3 5,2 3 2 6 4
37,5,5,prac,81,1,81,97,1,15.5119583800001,2.3524532800006455,9.12612947999969,0.875,0.8,5,0,1.9,1 1 1 1 1,1 1 1 1 0,0 0 0 0 1
37,6,6,prac,80,1,80,80,1,11.2123139800005,2.702529179999601,5.78465920000008,0.875,0.8,5,1,2,1 1 1 1 1,0 1 1 1 1,1 0 0 0 0
37,7,7,prac,99,3,99,97,3,8.14543758000082,1.503727980000349,3.55406069999981,1,1,45,1,1.8,9 9 9 9 9,9 9 9 9 9,0 0 0 0 0
37,8,8,prac,20,1,20,2,1,8.67864947999988,2.08655318000001,3.78645559999995,0.125,0.2,5,0,1.9,1 1 1 1 1,0 0 0 0 1,1 1 1 1 0
37,9,9,prac,40,1,58,56,3,16.2119791800001,2.451910279999993,7.56337087999964,0.625,0.6,5,0,1.5,1 1 1 1 1,0 1 1 1 0,1 0 0 0 1
37,10,10,prac,40,1,34,22,2,6.89667647999977,2.0865786800000024,4.01780700000018,0.375,0.4,5,0,1.7,1 1 1 1 1,0 0 0 1 1,1 1 1 0 0
37,11,11,prac,40,1,48,82,1,8.17902058000027,2.6182705799997166,11.0827269800002,0.5,0.4,5,1,1.6,1 1 1 1 1,1 0 0 1 0,0 1 1 0 1
37,12,12,prac,60,1,65,76,1,3.66384408000022,1.2520614800005205,4.52056440000024,0.625,0.6,5,0,1.7,1 1 1 1 1,0 0 1 1 1,1 1 0 0 0
37,13,13,prac,53,2,53,70,1,5.21260458000052,1.285730180000428,4.31916640000054,0.625,0.6222222222222222,45,0,1.6,9 9 9 9 9,6 4 8 6 4,3 5 1 3 5
37,14,14,prac,15,2,15,1,1,3.19541438000078,1.1703565800003162,7.05416590000004,0.125,0.13333333333333333,45,0,1.6,9 9 9 9 9,2 2 0 0 2,7 7 9 9 7
37,15,15,prac,60,1,68,76,2,7.04514177999999,2.8522519800003465,3.65030407999984,0.625,0.6,5,0,1.9,1 1 1 1 1,1 1 1 0 0,0 0 0 1 1
39,1,1,prac,80,2,84,97,2,14.425674179999987,3.5956650399999717,6.948168979999878,0.875,0.8,5,0,1.9,1 1 1 1 1,1 0 1 1 1,0 1 0 0 0
39,2,2,prac,60,NA,0,85,3,[],NA,[],0.625,0.6,5,0,1.8,1 1 1 1 1,1 0 1 0 1,0 1 0 1 0
39,3,3,prac,40,2,40,39,1,16.548139080000055,11.867342139999892,3.93338907999987,0.875,0.8,5,1,1.6,1 1 1 1 1,1 1 0 1 1,0 0 1 0 0
39,4,4,prac,21,2,19,5,1,12.647577280000178,1.9242574400000194,7.413016380000045,0.125,0.13333333333333333,45,0,1.6,9 9 9 9 9,1 1 2 2 0,8 8 7 7 9
39,5,5,prac,40,2,50,82,1,8.467118880000044,2.355267740000045,9.314940179999667,0.5,0.4,5,1,1.6,1 1 1 1 1,1 0 1 0 0,0 1 0 1 1
39,6,6,prac,55,2,60,73,1,10.939036980000083,2.2824023399998623,5.508541879999939,0.625,0.6222222222222222,45,0,1.7,9 9 9 9 9,9 7 7 3 2,0 2 2 6 7
39,7,7,prac,36,3,41,51,2,4.224355780000224,1.9302305400001387,6.198162679999768,0.375,0.37777777777777777,45,0,1.9,9 9 9 9 9,5 3 3 3 3,4 6 6 6 6
39,8,8,prac,100,3,99,98,3,4.457704779999858,2.689201640000192,5.002312079999911,1,1,45,1,1.7,9 9 9 9 9,9 9 9 9 9,0 0 0 0 0
39,9,9,prac,20,2,19,5,1,4.254808079999975,1.7481353400000899,2.918321879999894,0.125,0.2,5,0,1.6,1 1 1 1 1,0 0 0 1 0,1 1 1 0 1
39,10,10,prac,56,1,67,71,3,3.409642280000071,1.505922640000108,6.870788879999964,0.625,0.6222222222222222,45,0,1.6,9 9 9 9 9,7 4 5 6 6,2 5 4 3 3
39,11,11,prac,56,1,64,71,2,11.73080468000012,2.916022240000302,6.774333479999996,0.625,0.6222222222222222,45,0,1.6,9 9 9 9 9,5 8 5 7 3,4 1 4 2 6
39,12,12,prac,40,2,29,23,3,4.229829080000172,1.6740878400000838,4.234663879999971,0.375,0.4,5,0,1.9,1 1 1 1 1,0 0 1 1 0,1 1 0 0 1
39,13,13,prac,81,2,89,97,2,3.6406245800001216,2.09635703999993,5.500995880000119,0.875,0.8666666666666667,45,0,1.7,9 9 9 9 9,6 8 7 9 9,3 1 2 0 0
39,14,14,prac,60,2,62,75,1,8.018643480000264,1.5663626400000794,2.254695879999872,0.625,0.6,5,0,1.9,1 1 1 1 1,1 0 1 1 0,0 1 0 0 1
39,15,15,prac,60,2,66,78,2,4.6990561800000705,1.2053358400000889,4.02698549999991,0.625,0.6,5,0,1.7,1 1 1 1 1,1 1 1 0 0,0 0 0 1 1
40,1,1,prac,31,NA,0,85,3,[],NA,[],0.625,0.6,5,0,1.9,1 1 1 1 1,0 1 1 0 1,1 0 0 1 0
40,2,2,prac,40,2,55,58,2,5.895733719999953,2.535437720000118,6.360992419999548,0.625,0.6,5,0,1.9,1 1 1 1 1,1 0 1 1 0,0 1 0 0 1
40,3,3,prac,60,1,65,75,1,7.745017619999999,1.6199243199998818,7.095603320000009,0.625,0.6,5,0,1.7,1 1 1 1 1,0 1 0 1 1,1 0 1 0 0
40,4,4,prac,95,3,94,93,3,7.279756720000023,1.7358970199998112,5.6638283199995385,1,1,45,1,1.7,9 9 9 9 9,9 9 9 9 9,0 0 0 0 0
40,5,5,prac,39,1,70,80,1,9.29605582000022,2.00230651999982,6.095452020000266,0.5,0.4,5,1,1.7,1 1 1 1 1,1 0 1 0 0,0 1 0 1 1
40,6,6,prac,38,1,45,55,1,10.894905820000076,2.386716019999767,4.624464619999799,0.375,0.4,5,0,1.9,1 1 1 1 1,0 0 1 1 0,1 1 0 0 1
40,7,7,prac,10,2,11,25,2,8.180119219999597,1.4189883200001532,6.530044519999592,0.125,0.13333333333333333,45,0,1.6,9 9 9 9 9,0 1 1 2 2,9 8 8 7 7
40,8,8,prac,60,2,65,75,2,7.629767720000018,2.636036620000141,6.598603120000462,0.625,0.6222222222222222,45,0,1.5,9 9 9 9 9,4 5 4 8 7,5 4 5 1 2
40,9,9,prac,55,2,56,72,1,6.961723719999554,1.4022758199994314,6.365115820000028,0.625,0.6222222222222222,45,0,1.7,9 9 9 9 9,6 4 5 6 7,3 5 4 3 2
40,10,10,prac,60,2,70,75,3,5.745503519999602,1.65285601999949,5.762825420000354,0.625,0.6222222222222222,45,0,1.6,9 9 9 9 9,5 7 6 5 5,4 2 3 4 4
40,11,11,prac,25,1,16,9,2,7.311892919999991,3.4012449199999537,11.897387620000245,0.125,0.2,5,0,1.5,1 1 1 1 1,0 0 0 0 1,1 1 1 1 0
40,12,12,prac,75,1,76,77,1,7.61257341999999,1.852992919999906,5.417642800000067,0.875,0.8,5,1,1.8,1 1 1 1 1,1 1 1 1 0,0 0 0 0 1
40,13,13,prac,35,2,40,50,1,5.279774019999877,2.285798519999844,4.062484720000157,0.375,0.37777777777777777,45,0,2,9 9 9 9 9,4 4 3 4 2,5 5 6 5 7
40,14,14,prac,75,1,90,91,3,6.196625720000156,1.486402320000252,6.560467419999895,0.875,0.8,5,0,1.6,1 1 1 1 1,1 0 1 1 1,0 1 0 0 0
40,15,15,prac,95,2,93,80,1,6.763088420000258,1.8530836199997793,7.730792720000409,0.875,0.8666666666666667,45,0,1.7,9 9 9 9 9,7 9 8 8 7,2 0 1 1 2
43,1,1,prac,63,2,75,80,1,11.08351726,2.0371982799997568,10.0495246,0.875,0.8666666666666667,45,0,1.8,9 9 9 9 9,7 8 8 8 8,2 1 1 1 1
43,2,2,prac,63,2,63,78,3,9.33792746000017,2.5282189800000197,4.49083295999981,0.625,0.6222222222222222,45,0,1.6,9 9 9 9 9,5 7 5 5 6,4 2 4 4 3
43,3,3,prac,60,3,62,75,1,11.2052379599995,3.3477094800000486,6.36306026000011,0.625,0.6,5,0,1.7,1 1 1 1 1,1 1 0 1 0,0 0 1 0 1
43,4,4,prac,39,2,40,80,1,11.5501587600002,1.58165407999968,4.98198145999913,0.5,0.4,5,1,1.9,1 1 1 1 1,1 0 1 0 0,0 1 0 1 1
43,5,5,prac,80,2,80,97,1,7.59694885999988,1.8472127800000635,5.43184866000001,0.875,0.8,5,0,1.8,1 1 1 1 1,1 1 0 1 1,0 0 1 0 0
43,6,6,prac,60,2,60,75,2,8.32291066000016,1.5990502800000286,3.43488065999964,0.625,0.6,5,0,2,1 1 1 1 1,1 1 0 1 0,0 0 1 0 1
43,7,7,prac,40,2,40,24,2,8.25535965999961,1.2392710799999804,4.80087366000043,0.375,0.4,5,0,1.9,1 1 1 1 1,0 1 0 0 1,1 0 1 1 0
43,8,8,prac,32,2,32,50,1,13.0251737599997,1.438095279999743,3.47135995999952,0.375,0.37777777777777777,45,0,1.9,9 9 9 9 9,4 2 2 3 6,5 7 7 6 3
43,9,9,prac,36,2,37,51,2,10.38066166,2.635301079999863,8.37296856000057,0.625,0.6222222222222222,45,0,1.6,9 9 9 9 9,7 7 3 7 4,2 2 6 2 5
43,10,10,prac,60,2,60,75,3,7.08019945999968,1.5970730799999728,4.51868745999991,0.625,0.6,5,0,1.8,1 1 1 1 1,1 0 1 0 1,0 1 0 1 0
43,11,11,prac,94,2,94,96,3,11.4333272600006,1.846656680000251,9.35536955999987,1,1,45,1,1.6,9 9 9 9 9,9 9 9 9 9,0 0 0 0 0
43,12,12,prac,65,2,65,50,1,9.5382720599996,1.2215062799996304,4.56696456000009,0.625,0.6222222222222222,45,0,1.6,9 9 9 9 9,4 8 5 8 3,5 1 4 1 6
43,13,13,prac,20,2,20,3,2,8.15832076000015,1.7377860799997507,5.67982276000021,0.125,0.2,5,0,1.9,1 1 1 1 1,1 0 0 0 0,0 1 1 1 1
43,14,14,prac,80,2,80,78,3,9.04388556000004,1.2910224799998105,6.65368105999914,0.875,0.8,5,1,1.6,1 1 1 1 1,1 1 1 0 1,0 0 0 1 0
43,15,15,prac,20,2,16,2,2,12.9226654599997,2.515848879999794,10.7254111600005,0.125,0.13333333333333333,45,0,1.5,9 9 9 9 9,3 2 1 0 0,6 7 8 9 9
44,1,1,prac,20,1,20,5,1,4.74540479000007,2.486107990000164,3.29518103999908,0.125,0.2,5,0,1.9,1 1 1 1 1,0 1 0 0 0,1 0 1 1 1
44,2,2,prac,85,3,85,99,3,6.77883109000049,1.9695446900004754,5.76301383999908,0.875,0.8666666666666667,45,0,1.7,9 9 9 9 9,8 7 9 6 9,1 2 0 3 0
44,3,3,prac,33,2,33,49,2,6.3960643900009,4.119620189998386,3.76486774000023,0.375,0.37777777777777777,45,0,2,9 9 9 9 9,2 4 6 3 2,7 5 3 6 7
44,4,4,prac,40,1,40,24,1,9.12913339000079,1.6862780899991776,2.95683403999919,0.375,0.4,5,0,1.9,1 1 1 1 1,0 0 1 0 1,1 1 0 1 0
44,5,5,prac,100,3,100,98,3,3.74678228999983,3.0204417900004046,3.12594853999963,1,1,45,1,1.9,9 9 9 9 9,9 9 9 9 9,0 0 0 0 0
44,6,6,prac,10,3,12,26,3,7.28032098999938,1.9369946900014838,13.895941239999,0.125,0.13333333333333333,45,0,1.9,9 9 9 9 9,1 1 0 4 0,8 8 9 5 9
44,7,7,prac,80,1,98,98,3,5.5954052900006,1.7022628899994743,7.39567094000085,0.875,0.8,5,0,1.7,1 1 1 1 1,1 1 0 1 1,0 0 1 0 0
44,8,8,prac,60,1,68,75,2,4.7789041900005,2.0862491900006717,7.12946664000083,0.625,0.6,5,0,1.9,1 1 1 1 1,0 1 1 1 0,1 0 0 0 1
44,9,9,prac,40,1,50,82,1,5.22906478999994,5.336152490001041,11.59669364,0.5,0.4,5,1,1.8,1 1 1 1 1,0 0 0 1 1,1 1 1 0 0
44,10,10,prac,65,2,62,49,2,6.04644508999991,5.37022548999812,6.26373413999954,0.625,0.6222222222222222,45,0,1.7,9 9 9 9 9,8 5 4 7 4,1 4 5 2 5
44,11,11,prac,50,2,50,65,1,3.99591748999865,1.5527598899980148,3.22961063999992,0.625,0.6222222222222222,45,0,1.7,9 9 9 9 9,6 6 4 8 4,3 3 5 1 5
44,12,12,prac,60,1,60,77,1,3.69514768999943,1.852310289998968,3.03065984000023,0.625,0.6,5,0,1.6,1 1 1 1 1,1 1 0 1 0,0 0 1 0 1
44,13,13,prac,60,1,75,75,3,3.32893628999955,2.1530420899980527,3.09812103999957,0.625,0.6,5,0,1.8,1 1 1 1 1,1 0 1 1 0,0 1 0 0 1
44,14,14,prac,72,3,66,55,3,10.5289159899994,1.7196407899991755,7.29569314000037,0.625,0.6222222222222222,45,0,1.6,9 9 9 9 9,4 6 6 6 6,5 3 3 3 3
44,15,15,prac,80,1,60,39,1,3.87864459000048,2.869267789999867,10.4954543400008,0.875,0.8,5,1,1.9,1 1 1 1 1,1 0 1 1 1,0 1 0 0 0
47,1,1,prac,45,2,45,62,1,6.779034760000059,3.035313560000077,6.616110359999766,0.625,0.6222222222222222,45,0,1.6,9 9 9 9 9,6 7 3 4 8,3 2 6 5 1
47,2,2,prac,62,NA,0,84,1,[],NA,[],0.625,0.6,5,0,1.9,1 1 1 1 1,1 0 0 1 1,0 1 1 0 0
47,3,3,prac,60,2,65,76,2,4.980424059999905,2.553235559999848,9.73035756000013,0.625,0.6222222222222222,45,0,1.7,9 9 9 9 9,2 7 8 7 4,7 2 1 2 5
47,4,4,prac,95,2,95,77,1,12.27824155999997,2.6188201599998138,4.3225768600000265,0.875,0.8666666666666667,45,0,1.7,9 9 9 9 9,8 6 8 8 9,1 3 1 1 0
47,5,5,prac,80,3,85,97,2,8.696590660000084,3.3026640600000974,5.116843759999938,0.875,0.8,5,0,1.9,1 1 1 1 1,1 0 1 1 1,0 1 0 0 0
47,6,6,prac,20,2,20,5,1,8.063189060000013,1.9021421600000394,14.830895059999875,0.125,0.2,5,0,2,1 1 1 1 1,1 0 0 0 0,0 1 1 1 1
47,7,7,prac,50,2,60,67,3,3.628882060000251,2.4362868599996546,4.729879560000427,0.625,0.6222222222222222,45,0,1.8,9 9 9 9 9,6 4 6 6 6,3 5 3 3 3
47,8,8,prac,60,3,65,76,2,9.796922259999974,4.169156659999771,4.1629917600002955,0.625,0.6,5,0,1.5,1 1 1 1 1,0 1 0 1 1,1 0 1 0 0
47,9,9,prac,100,3,99,99,3,3.4285533600000235,1.736717960000533,3.818363099999715,1,1,45,1,2,9 9 9 9 9,9 9 9 9 9,0 0 0 0 0
47,10,10,prac,80,3,75,9,1,7.562659660000008,2.4375967599999058,10.583299359999728,0.875,0.8,5,1,1.8,1 1 1 1 1,1 1 0 1 1,0 0 1 0 0
47,11,11,prac,40,3,32,24,3,14.046062559999882,1.5855405600000267,4.061202460000004,0.375,0.4,5,0,1.6,1 1 1 1 1,1 1 0 0 0,0 0 1 1 1
47,12,12,prac,60,3,68,76,3,14.311609560000306,1.5192181600000367,5.52853746000028,0.625,0.6,5,0,2,1 1 1 1 1,1 1 1 0 0,0 0 0 1 1
47,13,13,prac,13,2,20,31,2,10.612720960000388,1.7201417599999331,4.7825095600005625,0.125,0.13333333333333333,45,0,1.9,9 9 9 9 9,3 0 1 2 0,6 9 8 7 9
47,14,14,prac,40,2,40,40,2,10.961560859999736,1.8037188600001173,3.683909500000027,0.5,0.4,5,1,1.5,1 1 1 1 1,1 0 0 1 0,0 1 1 0 1
47,15,15,prac,40,2,30,23,3,7.146410659999674,1.6351090599996496,4.219679199999973,0.375,0.37777777777777777,45,0,1.8,9 9 9 9 9,3 4 4 3 3,6 5 5 6 6
48,1,1,prac,88,2,86,72,3,14.0961942300005,6.10276513000008,15.7936301799996,0.875,0.8666666666666667,45,0,1.6,9 9 9 9 9,8 8 8 7 8,1 1 1 2 1
48,2,2,prac,100,3,98,98,3,7.54669083000044,4.7696112300000095,11.4603454799999,1,1,45,1,1.8,9 9 9 9 9,9 9 9 9 9,0 0 0 0 0
48,3,3,prac,80,3,90,95,3,9.67891783000005,3.2524910299998737,9.96361468000032,0.875,0.8,5,0,1.9,1 1 1 1 1,0 1 1 1 1,1 0 0 0 0
48,4,4,prac,58,2,62,75,1,11.7467261300003,1.7524058300000434,10.4211512500001,0.625,0.6222222222222222,45,0,1.7,9 9 9 9 9,6 3 7 6 6,3 6 2 3 3
48,5,5,prac,60,2,70,76,2,10.5287103300002,3.3519768300002397,12.1172767500007,0.625,0.6,5,0,1.6,1 1 1 1 1,0 1 1 1 0,1 0 0 0 1
48,6,6,prac,20,1,20,5,1,16.3949676300003,2.1019024300003366,12.0599033799999,0.125,0.2,5,0,1.5,1 1 1 1 1,0 0 0 1 0,1 1 1 0 1
48,7,7,prac,65,1,61,50,2,14.06161643,5.803625630000624,12.02464908,0.625,0.6222222222222222,45,0,1.9,9 9 9 9 9,6 4 5 7 6,3 5 4 2 3
48,8,8,prac,40,1,40,25,1,10.0628710299998,4.100830530000621,7.65780438000047,0.375,0.4,5,0,1.9,1 1 1 1 1,0 1 0 0 1,1 0 1 1 0
48,9,9,prac,60,1,65,75,1,9.24529893000044,3.6021565300002294,11.5630021800002,0.625,0.6,5,0,2,1 1 1 1 1,1 0 0 1 1,0 1 1 0 0
48,10,10,prac,70,2,63,55,3,15.5465615300004,1.7357918299999255,12.32129648,0.625,0.6222222222222222,45,0,1.6,9 9 9 9 9,3 5 7 7 6,6 4 2 2 3
48,11,11,prac,35,2,40,50,3,9.86274013000047,2.236703930000658,11.5623265800004,0.375,0.37777777777777777,45,0,1.5,9 9 9 9 9,5 2 4 3 3,4 7 5 6 6
48,12,12,prac,40,1,40,40,1,9.29619163000007,2.2349974300000213,5.23029508000036,0.5,0.4,5,1,1.7,1 1 1 1 1,0 1 0 0 1,1 0 1 1 0
48,13,13,prac,11,2,14,29,2,16.3799531300001,2.3684787300003336,14.3982018800007,0.125,0.13333333333333333,45,0,1.6,9 9 9 9 9,2 0 3 0 1,7 9 6 9 8
48,14,14,prac,60,2,70,78,3,7.24583012999983,3.4190432300001703,10.25363135,0.625,0.6,5,0,1.6,1 1 1 1 1,1 0 1 1 0,0 1 0 0 1
48,15,15,prac,80,1,80,80,3,9.87921763000031,3.1870230300000912,4.85100624999995,0.875,0.8,5,1,1.9,1 1 1 1 1,1 1 1 0 1,0 0 0 1 0
51,1,1,prac,60,1,65,76,1,6.47924911999962,1.9514974200001234,7.62716782000098,0.625,0.6,5,0,1.8,1 1 1 1 1,1 1 1 0 0,0 0 0 1 1
51,2,2,prac,60,1,70,75,2,10.4948980199988,1.8872680200001923,12.8933315199993,0.625,0.6,5,0,1.9,1 1 1 1 1,0 1 1 1 0,1 0 0 0 1
51,3,3,prac,10,3,15,26,2,3.8791473199999,1.485581119998642,5.46142461999807,0.875,0.8666666666666667,45,0,1.5,9 9 9 9 9,9 6 8 8 8,0 3 1 1 1
51,4,4,prac,70,2,65,52,1,7.06170011999984,1.9696777199987991,6.62961001999975,0.625,0.6222222222222222,45,0,1.8,9 9 9 9 9,7 6 6 5 4,2 3 3 4 5
51,5,5,prac,60,2,70,78,3,4.24650182000096,1.9524395199996434,10.0314713200005,0.625,0.6222222222222222,45,0,1.8,9 9 9 9 9,7 3 7 5 6,2 6 2 4 3
51,6,6,prac,65,2,60,50,2,15.7448516199993,1.587040919998799,8.69223672000135,0.625,0.6222222222222222,45,0,1.8,9 9 9 9 9,5 7 6 6 4,4 2 3 3 5
51,7,7,prac,50,1,60,65,3,5.54509322000013,1.951884520000931,7.1629573199998,0.625,0.6,5,0,1.9,1 1 1 1 1,0 1 1 0 1,1 0 0 1 0
51,8,8,prac,100,3,99,98,3,3.32907822000016,1.8353783200009275,3.76294221999979,1,1,45,1,1.6,9 9 9 9 9,9 9 9 9 9,0 0 0 0 0
51,9,9,prac,47,1,40,31,2,10.6449822200002,2.4357989199997974,6.05853161999858,0.375,0.4,5,0,1.7,1 1 1 1 1,1 1 0 0 0,0 0 1 1 1
51,10,10,prac,80,1,85,97,1,9.27878081999916,1.6860718200005067,6.86422471999867,0.875,0.8,5,0,1.7,1 1 1 1 1,1 1 1 1 0,0 0 0 0 1
51,11,11,prac,80,1,79,78,2,4.89701711999987,1.535714920000828,6.06136232000063,0.875,0.8,5,1,1.6,1 1 1 1 1,1 1 0 1 1,0 0 1 0 0
51,12,12,prac,40,2,32,22,1,4.9803956199994,1.4195488200002728,9.12952291999954,0.375,0.37777777777777777,45,0,1.8,9 9 9 9 9,4 2 4 2 5,5 7 5 7 4
51,13,13,prac,20,3,10,4,2,7.51219192000008,1.2699576199993317,4.16445992000081,0.125,0.13333333333333333,45,0,1.9,9 9 9 9 9,2 2 0 0 2,7 7 9 9 7
51,14,14,prac,45,1,44,43,1,6.87906122000004,1.5354525200009448,5.72690951999994,0.5,0.4,5,1,1.8,1 1 1 1 1,1 0 0 1 0,0 1 1 0 1
51,15,15,prac,20,1,13,4,1,7.56297451999944,1.7696798199986006,10.1964454199997,0.125,0.2,5,0,2,1 1 1 1 1,0 0 0 0 1,1 1 1 1 0
54,1,1,prac,60,1,60,75,1,10.5283496800002,1.4181422800011205,6.655443780000496,0.625,0.6,5,0,1.6,1 1 1 1 1,1 1 1 0 0,0 0 0 1 1
54,2,2,prac,60,1,75,76,3,3.99554708000142,2.0020057799993083,14.196067180000682,0.625,0.6,5,0,1.9,1 1 1 1 1,1 0 1 0 1,0 1 0 1 0
54,3,3,prac,80,2,70,64,3,13.9459767799999,2.1854257799986954,6.229609280000659,0.625,0.6222222222222222,45,0,2,9 9 9 9 9,7 4 6 5 6,2 5 3 4 3
54,4,4,prac,60,2,65,76,2,5.03009888000088,1.8034798799999407,3.0973145800016937,0.625,0.6222222222222222,45,0,1.9,9 9 9 9 9,5 4 6 8 5,4 5 3 1 4
54,5,5,prac,88,3,87,71,1,5.09511718000249,1.5200959800004057,7.184236299997792,0.125,0.13333333333333333,45,0,1.9,9 9 9 9 9,1 1 2 1 1,8 8 7 8 8
54,6,6,prac,40,1,40,40,2,6.24503318000097,1.953477680001015,3.1603877800007467,0.5,0.4,5,1,1.5,1 1 1 1 1,1 1 0 0 0,0 0 1 1 1
54,7,7,prac,60,1,67,75,2,6.86320158000126,2.1859196800014615,4.347674780001398,0.625,0.6,5,0,1.7,1 1 1 1 1,0 1 0 1 1,1 0 1 0 0
54,8,8,prac,20,1,10,2,1,2.92992128000151,1.7189265800006979,5.6951328800005285,0.125,0.2,5,0,1.8,1 1 1 1 1,0 0 0 1 0,1 1 1 0 1
54,9,9,prac,27,2,38,45,3,11.5615839799993,1.719699679999394,8.631018179999955,0.375,0.37777777777777777,45,0,1.5,9 9 9 9 9,4 4 1 2 6,5 5 8 7 3
54,10,10,prac,100,3,99,98,3,2.79594108000128,1.420134780000808,6.86318718000075,1,1,45,1,1.7,9 9 9 9 9,9 9 9 9 9,0 0 0 0 0
54,11,11,prac,80,1,90,96,2,2.82894168000166,2.3025101800012635,11.96126798000114,0.875,0.8,5,0,1.9,1 1 1 1 1,1 1 0 1 1,0 0 1 0 0
54,12,12,prac,80,1,50,26,1,4.89508937999926,1.6536760800008778,[],0.875,0.8,5,1,1.7,1 1 1 1 1,1 1 1 0 1,0 0 0 1 0
54,13,13,prac,60,2,65,76,1,2.26193488000172,1.6873344799987535,9.193004280001333,0.625,0.6222222222222222,45,0,1.8,9 9 9 9 9,8 5 5 3 7,1 4 4 6 2
54,14,14,prac,90,3,87,75,2,8.49655768000048,1.9186784800003807,5.5288553800000955,0.875,0.8666666666666667,45,0,1.5,9 9 9 9 9,8 7 9 7 8,1 2 0 2 1
54,15,15,prac,40,1,33,25,1,2.51218118000179,1.086709780000092,10.328770479998639,0.375,0.4,5,0,1.9,1 1 1 1 1,1 0 0 0 1,0 1 1 1 0
55,1,1,prac,96,3,96,96,3,4.39609474999997,1.8684187499998188,6.11806804999992,1,1,45,1,1.8,9 9 9 9 9,9 9 9 9 9,0 0 0 0 0
55,2,2,prac,55,1,60,70,1,4.74539145000017,1.919431750000058,3.81923234999999,0.625,0.6,5,0,1.8,1 1 1 1 1,1 0 1 0 1,0 1 0 1 0
55,3,3,prac,60,1,73,75,3,4.32873364999978,2.402968849999752,6.81908165000004,0.625,0.6,5,0,1.9,1 1 1 1 1,0 1 0 1 1,1 0 1 0 0
55,4,4,prac,90,1,85,74,1,6.94606565000004,2.852984249999963,3.35075514999994,0.875,0.8,5,0,1.9,1 1 1 1 1,1 1 1 1 0,0 0 0 0 1
55,5,5,prac,13,3,20,28,3,6.31276164999986,2.536631149999721,4.55504474999998,0.125,0.13333333333333333,45,0,1.8,9 9 9 9 9,0 2 0 2 2,9 7 9 7 7
55,6,6,prac,80,1,80,81,1,3.01209924999989,1.9351488499996776,3.65211265000016,0.875,0.8,5,1,1.6,1 1 1 1 1,0 1 1 1 1,1 0 0 0 0
55,7,7,prac,60,1,47,44,3,5.16246844999978,1.635154349999766,4.48502194999992,0.375,0.4,5,0,1.6,1 1 1 1 1,0 1 0 0 1,1 0 1 1 0
55,8,8,prac,20,1,8,2,2,4.61199114999999,1.7521336499999052,2.39662549999957,0.125,0.2,5,0,1.8,1 1 1 1 1,0 0 1 0 0,1 1 0 1 1
55,9,9,prac,80,1,67,62,2,4.13045094999984,1.7699690499998724,5.41979034999986,0.625,0.6,5,0,1.7,1 1 1 1 1,1 1 1 0 0,0 0 0 1 1
55,10,10,prac,50,2,60,67,2,2.8796556499999,1.6016011499996239,4.31924925000021,0.625,0.6222222222222222,45,0,1.6,9 9 9 9 9,6 6 5 6 5,3 3 4 3 4
55,11,11,prac,43,2,36,25,2,3.87983604999977,1.5356563499999538,3.65322634999984,0.375,0.37777777777777777,45,0,1.5,9 9 9 9 9,2 5 2 5 3,7 4 7 4 6
55,12,12,prac,63,3,54,46,3,3.09597794999991,1.5695690499999273,4.62029644999984,0.625,0.6222222222222222,45,0,1.7,9 9 9 9 9,5 7 6 7 3,4 2 3 2 6
55,13,13,prac,91,3,85,74,3,4.89593084999979,1.8190442499999335,5.55287654999984,0.875,0.8666666666666667,45,0,1.7,9 9 9 9 9,7 8 9 7 8,2 1 0 2 1
55,14,14,prac,76,2,75,60,1,3.26284934999967,1.8353869499997018,3.25199944999963,0.625,0.6222222222222222,45,0,1.8,9 9 9 9 9,4 6 5 7 6,5 3 4 2 3
55,15,15,prac,20,1,40,63,1,3.41387415000008,1.750589449999552,3.68326010000055,0.5,0.4,5,1,1.6,1 1 1 1 1,0 0 0 1 1,1 1 1 0 0
56,1,1,prac,75,2,68,60,3,7.64530908999996,1.9849077900000793,6.66081943999984,0.625,0.6222222222222222,45,0,1.5,9 9 9 9 9,5 4 6 6 7,4 5 3 3 2
56,2,2,prac,10,3,11,25,2,9.76235138999982,2.187506489999805,5.89207934000001,0.125,0.13333333333333333,45,0,1.8,9 9 9 9 9,1 1 2 2 0,8 8 7 7 9
56,3,3,prac,80,1,81,82,2,4.19657448999988,1.6689795900001627,3.64990704000047,0.875,0.8,5,1,1.9,1 1 1 1 1,0 1 1 1 1,1 0 0 0 0
56,4,4,prac,77,1,90,93,2,6.74613989000045,1.7866697899999053,5.76368714,0.875,0.8,5,0,1.8,1 1 1 1 1,1 1 1 0 1,0 0 0 1 0
56,5,5,prac,70,2,70,53,1,10.8462226900001,2.1368881900002634,3.9916353399999,0.625,0.6222222222222222,45,0,1.9,9 9 9 9 9,6 6 5 5 6,3 3 4 4 3
56,6,6,prac,60,1,62,76,1,5.54576958999996,2.119352390000131,2.7313130399998,0.625,0.6,5,0,1.6,1 1 1 1 1,0 0 1 1 1,1 1 0 0 0
56,7,7,prac,35,1,48,80,1,5.4455621900006,1.9204551900002116,6.26198774000022,0.5,0.4,5,1,1.8,1 1 1 1 1,1 1 0 0 0,0 0 1 1 1
56,8,8,prac,63,1,74,78,2,3.79611649000026,1.8536345899997286,7.44991504000018,0.625,0.6,5,0,1.9,1 1 1 1 1,1 1 0 1 0,0 0 1 0 1
56,9,9,prac,41,2,36,25,2,4.32948868999983,2.4363155899995945,7.63002204000031,0.375,0.37777777777777777,45,0,1.6,9 9 9 9 9,2 3 4 4 4,7 6 5 5 5
56,10,10,prac,12,1,24,28,2,4.86227589000055,1.8872707900000023,5.56523574000039,0.125,0.2,5,0,1.6,1 1 1 1 1,0 0 1 0 0,1 1 0 1 1
56,11,11,prac,99,3,98,97,3,5.34634929000049,2.2209130899996126,3.86372903999973,1,1,45,1,1.9,9 9 9 9 9,9 9 9 9 9,0 0 0 0 0
56,12,12,prac,44,1,60,62,3,7.27848149000056,2.8350964900005238,4.05078665000019,0.625,0.6,5,0,1.6,1 1 1 1 1,1 1 1 0 0,0 0 0 1 1
56,13,13,prac,85,3,85,81,1,8.11311078999961,2.8035735899998144,5.3496346400002,0.875,0.8666666666666667,45,0,1.9,9 9 9 9 9,6 9 9 7 8,3 0 0 2 1
56,14,14,prac,62,2,57,46,2,6.99678979000009,1.4701426900001024,5.61683433999997,0.625,0.6222222222222222,45,0,1.7,9 9 9 9 9,6 4 6 6 6,3 5 3 3 3
56,15,15,prac,45,1,43,30,1,5.61243349000006,1.653494490000412,3.91652474000011,0.375,0.4,5,0,1.5,1 1 1 1 1,0 1 0 0 1,1 0 1 1 0
58,1,1,prac,65,NA,0,85,2,[],NA,[],0.375,0.4,5,0,1.7,1 1 1 1 1,0 1 0 1 0,1 0 1 0 1
58,2,2,prac,40,2,66,82,1,7.413246750000326,3.2021858499997506,5.859073599999647,0.5,0.4,5,1,1.6,1 1 1 1 1,0 0 1 0 1,1 1 0 1 0
58,3,3,prac,50,1,65,65,3,3.9624187499998698,1.4867415500002608,6.632302699999855,0.625,0.6222222222222222,45,0,1.9,9 9 9 9 9,7 6 3 5 7,2 3 6 4 2
58,4,4,prac,93,3,90,78,1,5.413683250000304,1.6357092499997634,6.931520800000726,0.875,0.8666666666666667,45,0,1.8,9 9 9 9 9,8 7 8 9 7,1 2 1 0 2
58,5,5,prac,60,3,65,75,1,3.7465604500002883,1.903898449999815,3.2501871000008578,0.625,0.6,5,0,1.7,1 1 1 1 1,1 1 0 0 1,0 0 1 1 0
58,6,6,prac,60,2,67,76,2,7.063649950000126,1.7520670499998232,3.8181983499994203,0.625,0.6,5,0,1.5,1 1 1 1 1,0 1 1 1 0,1 0 0 0 1
58,7,7,prac,20,2,8,3,3,4.061978249999811,1.8535293499994623,6.283901849999893,0.125,0.2,5,0,1.5,1 1 1 1 1,1 0 0 0 0,0 1 1 1 1
58,8,8,prac,60,2,70,75,3,3.7966441499997927,1.6682371500000954,2.9647970000005444,0.625,0.6,5,0,1.9,1 1 1 1 1,1 1 0 1 0,0 0 1 0 1
58,9,9,prac,40,2,30,25,3,3.662577450000299,1.5867227500002627,3.284656150000046,0.375,0.37777777777777777,45,0,1.6,9 9 9 9 9,3 3 3 5 3,6 6 6 4 6
58,10,10,prac,70,2,65,55,2,6.779519249999794,2.052102950000517,4.4204288500000075,0.625,0.6222222222222222,45,0,1.7,9 9 9 9 9,7 5 5 7 4,2 4 4 2 5
58,11,11,prac,80,2,64,39,1,2.7622884500005966,1.8861340499997823,11.049788900000294,0.875,0.8,5,1,1.7,1 1 1 1 1,1 1 1 0 1,0 0 0 1 0
58,12,12,prac,95,3,96,96,3,4.4969050500003505,1.585504750000382,5.798218699999779,1,1,45,1,1.6,9 9 9 9 9,9 9 9 9 9,0 0 0 0 0
58,13,13,prac,15,3,7,1,3,4.563231349999569,1.8344967499997438,2.6850529500002267,0.125,0.13333333333333333,45,0,1.6,9 9 9 9 9,2 0 2 1 1,7 9 7 8 8
58,14,14,prac,62,3,57,45,1,6.34575575000008,2.535373249999793,3.630797999999686,0.625,0.6222222222222222,45,0,1.6,9 9 9 9 9,5 6 7 4 6,4 3 2 5 3
58,15,15,prac,80,2,92,97,2,2.6959982500002297,2.020218449999902,4.954322050000428,0.875,0.8,5,0,1.8,1 1 1 1 1,0 1 1 1 1,1 0 0 0 0
60,1,1,prac,75,3,70,60,1,5.90500195999994,1.4801285799999278,5.99093959999982,0.625,0.6,5,0,1.6,1 1 1 1 1,1 1 0 0 1,0 0 1 1 0
60,2,2,prac,85,2,85,80,1,8.02740896000068,2.0827207799998178,2.76328899999999,0.875,0.8666666666666667,45,0,1.7,9 9 9 9 9,8 8 7 9 7,1 1 2 0 2
60,3,3,prac,100,3,100,99,3,2.61287975999994,2.9824057800001356,4.57054636000066,1,1,45,1,1.9,9 9 9 9 9,9 9 9 9 9,0 0 0 0 0
60,4,4,prac,43,1,40,2,1,14.90621736,2.1223109799998383,4.42966130000013,0.5,0.4,5,1,1.6,1 1 1 1 1,0 0 1 0 1,1 1 0 1 0
60,5,5,prac,45,2,43,30,1,5.32083346000036,1.5640625799996997,6.65344920000052,0.375,0.37777777777777777,45,0,1.9,9 9 9 9 9,4 5 2 2 4,5 4 7 7 5
60,6,6,prac,22,2,17,6,3,9.19708895999975,3.8582966799999667,4.67191270000058,0.125,0.13333333333333333,45,0,1.8,9 9 9 9 9,0 1 1 3 1,9 8 8 6 8
60,7,7,prac,75,1,75,90,1,18.1232251599999,1.1051542800000789,4.0715448599999,0.875,0.8,5,0,2,1 1 1 1 1,1 1 0 1 1,0 0 1 0 0
60,8,8,prac,54,2,54,69,1,8.10450325999955,1.5302893799998856,2.80433530000028,0.625,0.6222222222222222,45,0,1.5,9 9 9 9 9,8 5 7 4 4,1 4 2 5 5
60,9,9,prac,65,2,65,50,2,5.93826495999974,3.7396521799996663,3.30598489999966,0.625,0.6,5,0,1.9,1 1 1 1 1,1 1 0 0 1,0 0 1 1 0
60,10,10,prac,75,1,60,22,1,6.30512876000057,1.282482379999692,3.83963140000014,0.875,0.8,5,1,1.6,1 1 1 1 1,1 1 0 1 1,0 0 1 0 0
60,11,11,prac,40,1,30,25,2,6.62552765999999,3.888472880000336,3.05391440000039,0.375,0.4,5,0,1.5,1 1 1 1 1,1 1 0 0 0,0 0 1 1 1
60,12,12,prac,60,2,64,75,2,3.68352465999988,4.079380180000044,2.15659335999999,0.625,0.6222222222222222,45,0,1.8,9 9 9 9 9,5 7 6 4 6,4 2 3 5 3
60,13,13,prac,60,3,65,75,3,2.68741985999941,2.5464605799998026,3.10308115999987,0.625,0.6222222222222222,45,0,1.8,9 9 9 9 9,4 6 5 5 8,5 3 4 4 1
60,14,14,prac,54,1,60,70,3,4.00765835999982,1.1629831799996282,2.88945110000031,0.625,0.6,5,0,1.7,1 1 1 1 1,0 1 1 0 1,1 0 0 1 0
60,15,15,prac,20,1,15,2,2,6.0050892600002,1.0824956800001928,3.40645409999979,0.125,0.2,5,0,1.6,1 1 1 1 1,0 0 0 1 0,1 1 1 0 1
62,1,1,prac,0,NA,0,21,1,[],NA,[],0.375,0.4,5,0,1.7,1 1 1 1 1,0 0 1 1 0,1 1 0 0 1
62,2,2,prac,20,1,19,2,1,8.37927985999977,2.4024398599999586,3.950898099999904,0.125,0.13333333333333333,45,0,1.7,9 9 9 9 9,0 1 2 1 2,9 8 7 8 7
62,3,3,prac,40,2,45,56,3,7.863898959999915,2.0013747600000897,5.084218099999816,0.625,0.6222222222222222,45,0,1.6,9 9 9 9 9,5 7 7 5 4,4 2 2 4 5
62,4,4,prac,80,3,80,97,1,5.66192946000001,2.4867956599996432,4.016294959999868,0.875,0.8,5,0,1.7,1 1 1 1 1,1 1 0 1 1,0 0 1 0 0
62,5,5,prac,70,2,60,54,3,8.829569259999971,1.3375495600000704,6.749812900000052,0.625,0.6,5,0,1.7,1 1 1 1 1,1 0 1 1 0,0 1 0 0 1
62,6,6,prac,60,2,40,6,1,8.478614760000255,1.8372762600001806,5.153827000000092,0.5,0.4,5,1,1.5,1 1 1 1 1,0 0 1 0 1,1 1 0 1 0
62,7,7,prac,85,2,90,99,2,4.329791160000468,1.8372666600002958,5.951463800000283,0.875,0.8666666666666667,45,0,1.6,9 9 9 9 9,9 8 8 7 7,0 1 1 2 2
62,8,8,prac,43,1,42,26,1,8.863413659999878,2.168848759999719,4.853507299999819,0.375,0.37777777777777777,45,0,1.7,9 9 9 9 9,4 2 7 2 2,5 7 2 7 7
62,9,9,prac,20,1,20,4,2,8.813605559999814,1.8853245599998445,4.7604716600003485,0.125,0.2,5,0,1.8,1 1 1 1 1,0 0 0 0 1,1 1 1 1 0
62,10,10,prac,55,2,60,72,2,5.013020259999848,1.8702478599998358,2.9856172999998307,0.625,0.6222222222222222,45,0,1.8,9 9 9 9 9,5 6 7 5 5,4 3 2 4 4
62,11,11,prac,60,2,60,78,2,7.263843659999793,2.1864187599996967,3.684676300000092,0.625,0.6,5,0,1.5,1 1 1 1 1,1 0 0 1 1,0 1 1 0 0
62,12,12,prac,100,3,100,98,3,3.247055959999898,1.9358708599997954,4.819727099999909,1,1,45,1,1.5,9 9 9 9 9,9 9 9 9 9,0 0 0 0 0
62,13,13,prac,80,2,80,32,1,7.062813559999768,2.035789259999774,3.752706599999783,0.875,0.8,5,1,1.8,1 1 1 1 1,1 0 1 1 1,0 1 0 0 0
62,14,14,prac,70,2,65,52,1,9.479894860000059,1.7869299599997248,3.718467699999792,0.625,0.6222222222222222,45,0,1.5,9 9 9 9 9,6 6 4 7 5,3 3 5 2 4
62,15,15,prac,44,1,60,61,1,11.678408260000197,1.6868194599996968,4.587559800000008,0.625,0.6,5,0,1.6,1 1 1 1 1,1 0 0 1 1,0 1 1 0 0
63,1,1,prac,70,2,65,52,1,5.74563390000003,2.5350548000001254,5.82572139999979,0.625,0.6,5,0,1.7,1 1 1 1 1,1 1 0 1 0,0 0 1 0 1
63,2,2,prac,5,3,10,20,2,3.19614549999983,2.219080900000108,4.68319079999992,0.125,0.13333333333333333,45,0,2,9 9 9 9 9,2 1 0 3 0,7 8 9 6 9
63,3,3,prac,60,1,65,75,2,6.36261730000069,2.585840900000221,4.58286970000017,0.625,0.6,5,0,1.5,1 1 1 1 1,1 0 0 1 1,0 1 1 0 0
63,4,4,prac,15,2,10,1,2,4.52875820000008,2.6366602000007333,3.21658559999923,0.125,0.2,5,0,1.5,1 1 1 1 1,1 0 0 0 0,0 1 1 1 1
63,5,5,prac,90,3,85,72,3,8.61357339999995,2.185607099999743,5.49795459999996,0.875,0.8666666666666667,45,0,1.6,9 9 9 9 9,8 8 7 8 8,1 1 2 1 1
63,6,6,prac,65,2,65,49,1,3.87963409999975,2.369660300000305,3.28286689999959,0.625,0.6222222222222222,45,0,1.7,9 9 9 9 9,4 7 4 7 6,5 2 5 2 3
63,7,7,prac,60,1,60,60,2,4.72943739999982,2.386461899999631,4.58325869999999,0.5,0.4,5,1,1.6,1 1 1 1 1,1 0 0 1 0,0 1 1 0 1
63,8,8,prac,57,1,73,73,3,6.04619369999955,2.7036253999999644,9.48428880000074,0.625,0.6,5,0,1.8,1 1 1 1 1,0 1 0 1 1,1 0 1 0 0
63,9,9,prac,40,1,30,22,2,8.92975530000058,1.8697202000007564,3.79331530000036,0.375,0.4,5,0,1.9,1 1 1 1 1,1 1 0 0 0,0 0 1 1 1
63,10,10,prac,65,2,57,50,3,5.17894440000009,2.1191459000001487,6.33123009999963,0.625,0.6222222222222222,45,0,1.7,9 9 9 9 9,6 7 6 3 6,3 2 3 6 3
63,11,11,prac,95,3,97,96,3,5.2468087000002,1.818581500000164,4.95006460000059,1,1,45,1,1.9,9 9 9 9 9,9 9 9 9 9,0 0 0 0 0
63,12,12,prac,65,2,65,50,2,5.22920239999985,2.353745099999742,3.15155659999982,0.375,0.37777777777777777,45,0,1.8,9 9 9 9 9,3 4 3 4 3,6 5 6 5 6
63,13,13,prac,80,1,93,97,3,3.26275829999986,3.252958000000035,6.18304289999969,0.875,0.8,5,0,2,1 1 1 1 1,1 1 1 0 1,0 0 0 1 0
63,14,14,prac,60,2,60,75,2,4.21175499999981,1.869525999999496,6.41782839999951,0.625,0.6222222222222222,45,0,1.6,9 9 9 9 9,7 6 5 4 6,2 3 4 5 3
63,15,15,prac,80,1,80,80,3,6.49648639999987,2.186866299999565,4.26471079999965,0.875,0.8,5,1,1.7,1 1 1 1 1,1 1 0 1 1,0 0 1 0 0
64,1,1,prac,60,1,70,76,3,8.49505420000014,1.8014760000000933,5.95176099999981,0.625,0.6,5,0,1.5,1 1 1 1 1,0 1 1 1 0,1 0 0 0 1
64,2,2,prac,65,2,60,50,2,4.31322939999973,3.101785099999688,5.3527897999993,0.625,0.6222222222222222,45,0,1.9,9 9 9 9 9,5 6 4 6 7,4 3 5 3 2
64,3,3,prac,20,1,10,2,1,6.07836209999959,1.7700127999996766,7.28478199999927,0.125,0.2,5,0,1.7,1 1 1 1 1,1 0 0 0 0,0 1 1 1 1
64,4,4,prac,80,1,50,28,1,4.4786196,1.4528384999998707,5.15333049999936,0.875,0.8,5,1,2,1 1 1 1 1,1 1 0 1 1,0 0 1 0 0
64,5,5,prac,15,2,10,1,3,7.14660370000001,1.6870946999993066,4.48545679999961,0.125,0.13333333333333333,45,0,1.7,9 9 9 9 9,0 2 2 2 0,9 7 7 7 9
64,6,6,prac,98,3,99,98,3,3.56350349999957,2.102336999999352,5.3316192000002,1,1,45,1,1.8,9 9 9 9 9,9 9 9 9 9,0 0 0 0 0
64,7,7,prac,90,3,85,75,2,4.9796666999996,1.3533680999998978,6.36417419999998,0.875,0.8666666666666667,45,0,1.6,9 9 9 9 9,8 7 7 8 9,1 2 2 1 0
64,8,8,prac,60,2,74,78,3,2.97946910000019,1.5869694999992134,5.98351349999984,0.625,0.6222222222222222,45,0,1.6,9 9 9 9 9,6 7 5 5 5,3 2 4 4 4
64,9,9,prac,60,1,71,76,2,6.44616489999999,1.8851564999999937,5.69888479999963,0.625,0.6,5,0,1.7,1 1 1 1 1,1 0 1 0 1,0 1 0 1 0
64,10,10,prac,37,1,36,36,2,5.39577910000025,1.4863393000000542,7.81772599999977,0.5,0.4,5,1,1.6,1 1 1 1 1,1 1 0 0 0,0 0 1 1 1
64,11,11,prac,35,2,40,51,1,5.09671879999951,1.3195432999996228,3.08294289999958,0.375,0.37777777777777777,45,0,1.7,9 9 9 9 9,4 2 3 4 4,5 7 6 5 5
64,12,12,prac,70,1,85,87,3,4.14610559999983,1.3690872999995918,3.43159859999969,0.875,0.8,5,0,1.9,1 1 1 1 1,1 0 1 1 1,0 1 0 0 0
64,13,13,prac,66,2,60,50,1,7.36255829999982,1.9693126999995911,5.68488119999984,0.625,0.6222222222222222,45,0,1.9,9 9 9 9 9,4 6 5 7 6,5 3 4 2 3
64,14,14,prac,65,1,60,50,1,3.0787937999994,1.470103300000119,6.1499418999997,0.625,0.6,5,0,1.9,1 1 1 1 1,0 1 0 1 1,1 0 1 0 0
64,15,15,prac,35,1,45,51,2,5.22866209999938,1.6362426000000596,14.4173216999998,0.375,0.4,5,0,1.9,1 1 1 1 1,1 0 0 0 1,0 1 1 1 0
65,1,1,prac,60,2,53,45,1,12.6898481199996,2.0020203600006425,8.97357031999945,0.375,0.4,5,0,1.8,1 1 1 1 1,0 0 1 1 0,1 1 0 0 1
65,2,2,prac,20,1,5,5,3,4.37526622000041,4.822659360000216,2.19310883999879,0.125,0.2,5,0,1.5,1 1 1 1 1,1 0 0 0 0,0 1 1 1 1
65,3,3,prac,80,1,90,98,3,4.10847281999941,4.30662804000076,3.63038044000041,0.875,0.8,5,0,1.9,1 1 1 1 1,1 0 1 1 1,0 1 0 0 0
65,4,4,prac,66,2,58,50,3,6.89685361999909,2.1218524599999,4.59340082000017,0.625,0.6,5,0,2,1 1 1 1 1,1 0 1 1 0,0 1 0 0 1
65,5,5,prac,80,1,80,80,2,3.32074632000058,2.046172860000297,3.37682012000005,0.875,0.8,5,1,2,1 1 1 1 1,1 0 1 1 1,0 1 0 0 0
65,6,6,prac,7,3,9,24,1,2.2458578199994,1.437645160000102,4.53341411999918,0.125,0.13333333333333333,45,0,1.6,9 9 9 9 9,0 2 1 1 2,9 7 8 8 7
65,7,7,prac,40,3,40,55,1,10.3051384199998,1.5377928600000814,3.01841141999921,0.625,0.6222222222222222,45,0,1.9,9 9 9 9 9,6 6 6 6 4,3 3 3 3 5
65,8,8,prac,60,2,67,75,3,5.02996911999981,1.6656039599993164,4.43946611999945,0.625,0.6222222222222222,45,0,1.7,9 9 9 9 9,5 7 5 5 6,4 2 4 4 3
65,9,9,prac,34,1,35,36,2,5.05492991999927,1.1645289600000979,4.19722661999913,0.5,0.4,5,1,1.9,1 1 1 1 1,0 0 1 0 1,1 1 0 1 0
65,10,10,prac,66,1,53,50,2,4.06796661999851,1.6490508599999885,2.92085111999859,0.625,0.6,5,0,1.7,1 1 1 1 1,0 0 1 1 1,1 1 0 0 0
65,11,11,prac,100,3,99,99,3,3.24638851999953,1.7640740599999845,4.29322041999967,1,1,45,1,1.6,9 9 9 9 9,9 9 9 9 9,0 0 0 0 0
65,12,12,prac,92,3,91,75,3,5.60995631999958,1.1916420600009587,4.1673685199994,0.875,0.8666666666666667,45,0,1.6,9 9 9 9 9,8 8 6 9 8,1 1 3 0 1
65,13,13,prac,57,3,57,73,2,5.02664251999977,1.4735368600004222,2.03455711999959,0.625,0.6222222222222222,45,0,1.6,9 9 9 9 9,7 5 4 5 7,2 4 5 4 2
65,14,14,prac,66,2,66,50,1,5.4466645199991,1.6657667600002242,2.0047570200004,0.625,0.6,5,0,1.9,1 1 1 1 1,1 1 1 0 0,0 0 0 1 1
65,15,15,prac,50,2,36,32,3,3.29932881999957,1.2127129600003173,4.69687892000002,0.375,0.37777777777777777,45,0,1.7,9 9 9 9 9,4 1 5 4 3,5 8 4 5 6
66,1,1,prac,12,3,20,30,3,7.61302594999961,4.0525119499998254,10.3268551000001,0.125,0.13333333333333333,45,0,1.8,9 9 9 9 9,2 1 0 0 3,7 8 9 9 6
66,2,2,prac,80,1,80,80,3,9.9125946500003,3.1863301499993213,7.2890033499998,0.875,0.8,5,1,1.8,1 1 1 1 1,1 1 1 1 0,0 0 0 0 1
66,3,3,prac,80,1,95,97,3,2.76245345000007,2.336143450000236,10.4185424499997,0.875,0.8,5,0,1.5,1 1 1 1 1,1 1 1 1 0,0 0 0 0 1
66,4,4,prac,40,1,30,25,2,7.07880484999941,2.085539150000386,11.8526684500002,0.375,0.4,5,0,1.5,1 1 1 1 1,1 1 0 0 0,0 0 1 1 1
66,5,5,prac,12,3,17,30,1,16.44659215,4.570784350000395,14.5226052000007,0.875,0.8666666666666667,45,0,1.9,9 9 9 9 9,8 9 7 9 6,1 0 2 0 3
66,6,6,prac,50,2,60,65,3,6.44566505000057,2.369917749999786,11.3623346000004,0.625,0.6222222222222222,45,0,1.8,9 9 9 9 9,5 5 7 5 6,4 4 2 4 3
66,7,7,prac,40,1,30,24,3,11.7784546499997,2.1529906499999925,7.33063080000011,0.375,0.37777777777777777,45,0,1.9,9 9 9 9 9,4 4 1 4 4,5 5 8 5 5
66,8,8,prac,65,3,62,49,1,9.17894324999952,3.485370150000108,8.2516122499992,0.625,0.6222222222222222,45,0,1.9,9 9 9 9 9,6 4 5 5 8,3 5 4 4 1
66,9,9,prac,60,1,73,78,2,9.29552684999953,2.303001449999556,14.8527729499997,0.625,0.6,5,0,1.7,1 1 1 1 1,1 1 0 0 1,0 0 1 1 0
66,10,10,prac,40,1,40,40,1,6.42921914999988,2.6850688499998796,3.25437654999951,0.5,0.4,5,1,2,1 1 1 1 1,0 0 0 1 1,1 1 1 0 0
66,11,11,prac,100,3,100,99,3,6.67890924999938,2.2857800499991754,3.75074924999944,1,1,45,1,1.5,9 9 9 9 9,9 9 9 9 9,0 0 0 0 0
66,12,12,prac,60,1,71,75,3,2.96256924999943,2.385688950000713,10.319278649999,0.625,0.6,5,0,1.9,1 1 1 1 1,1 0 0 1 1,0 1 1 0 0
66,13,13,prac,60,1,65,75,1,2.94625974999963,2.086772449999444,3.68538044999968,0.625,0.6,5,0,1.6,1 1 1 1 1,0 1 0 1 1,1 0 1 0 0
66,14,14,prac,50,2,63,68,2,9.63010384999916,8.203860549999717,7.15435075000005,0.625,0.6222222222222222,45,0,1.8,9 9 9 9 9,4 6 7 7 4,5 3 2 2 5
66,15,15,prac,20,1,12,5,2,8.62839964999966,3.736491350000506,16.2499838000008,0.125,0.2,5,0,1.7,1 1 1 1 1,0 0 1 0 0,1 1 0 1 1
67,1,1,prac,90,3,90,72,2,5.71181512000112,2.570114220000505,2.49234772000091,0.875,0.8666666666666667,45,0,1.7,9 9 9 9 9,8 8 7 9 7,1 1 2 0 2
67,2,2,prac,55,1,55,73,1,3.79711182000119,3.3857916200004183,3.23235351999938,0.875,0.8,5,0,1.6,1 1 1 1 1,1 1 0 1 1,0 0 1 0 0
67,3,3,prac,95,3,95,96,3,4.92848872000013,2.86918402000083,3.49784932000057,1,1,45,1,1.6,9 9 9 9 9,9 9 9 9 9,0 0 0 0 0
67,4,4,prac,87,3,80,69,3,5.09697131999928,1.9702896199996758,5.93008961999931,0.625,0.6222222222222222,45,0,1.7,9 9 9 9 9,5 6 7 4 6,4 3 2 5 3
67,5,5,prac,52,1,63,70,2,3.26302182000018,2.9190233200006332,5.35924371999954,0.625,0.6,5,0,1.9,1 1 1 1 1,1 0 1 1 0,0 1 0 0 1
67,6,6,prac,50,1,50,34,1,2.94713771999977,2.2352995199998986,3.06426311999985,0.375,0.4,5,0,1.7,1 1 1 1 1,0 1 1 0 0,1 0 0 1 1
67,7,7,prac,65,2,65,49,1,8.32952311999998,2.01873612000054,2.63159851999899,0.625,0.6222222222222222,45,0,1.8,9 9 9 9 9,5 6 6 7 4,4 3 3 2 5
67,8,8,prac,50,1,50,67,1,2.21317092000027,2.13617412000076,2.16445452000062,0.625,0.6,5,0,1.8,1 1 1 1 1,1 0 1 0 1,0 1 0 1 0
67,9,9,prac,65,1,60,19,1,6.11330141999952,2.0201754199997595,7.34969031999935,0.875,0.8,5,1,2,1 1 1 1 1,0 1 1 1 1,1 0 0 0 0
67,10,10,prac,50,1,60,66,3,2.69655512000008,1.702198920000228,7.82740681999985,0.625,0.6,5,0,1.8,1 1 1 1 1,0 1 0 1 1,1 0 1 0 0
67,11,11,prac,70,2,69,55,2,4.89604531999976,2.1704996200005553,3.5954117199999,0.625,0.6222222222222222,45,0,1.7,9 9 9 9 9,6 6 8 4 4,3 3 1 5 5
67,12,12,prac,45,1,40,28,2,6.99617652000052,1.6362969200008592,4.02998272000059,0.125,0.2,5,0,1.6,1 1 1 1 1,0 0 1 0 0,1 1 0 1 1
67,13,13,prac,13,2,20,29,3,8.3960622200002,4.619208820001404,4.09564382000008,0.125,0.13333333333333333,45,0,1.5,9 9 9 9 9,1 0 2 1 2,8 9 7 8 7
67,14,14,prac,50,1,49,49,2,3.73022192000008,2.0030636200008303,5.79778451999846,0.5,0.4,5,1,2,1 1 1 1 1,1 0 1 0 0,0 1 0 1 1
67,15,15,prac,30,2,35,45,3,4.17889021999963,2.1368133200003285,4.16478311999981,0.375,0.37777777777777777,45,0,1.9,9 9 9 9 9,3 5 3 3 3,6 4 6 6 6
68,1,1,prac,80,2,80,97,2,4.01281916000062,2.3684461600005307,6.99449976000051,0.875,0.8,5,0,1.9,1 1 1 1 1,1 1 0 1 1,0 0 1 0 0
68,2,2,prac,30,2,33,45,3,9.22912236000047,2.6846248599995306,7.33212895999986,0.375,0.37777777777777777,45,0,1.8,9 9 9 9 9,3 3 2 6 3,6 6 7 3 6
68,3,3,prac,90,3,85,72,2,3.42926885999896,1.9705080599997018,8.59435645999929,0.875,0.8666666666666667,45,0,1.5,9 9 9 9 9,8 7 9 8 7,1 2 0 1 2
68,4,4,prac,15,3,10,1,3,3.37908616000004,1.8508762600004047,6.09836226000061,0.125,0.13333333333333333,45,0,1.6,9 9 9 9 9,2 1 1 0 2,7 8 8 9 7
68,5,5,prac,57,1,60,73,1,9.51352165999924,2.285835959999531,2.85034939999969,0.625,0.6222222222222222,45,0,1.7,9 9 9 9 9,8 4 5 3 8,1 5 4 6 1
68,6,6,prac,50,1,50,48,2,2.54619176000051,1.420099859999027,3.69799766000051,0.5,0.4,5,1,1.9,1 1 1 1 1,0 0 1 1 0,1 1 0 0 1
68,7,7,prac,50,1,55,65,2,2.36328195999977,3.1013204599994424,6.09659076000116,0.625,0.6,5,0,1.9,1 1 1 1 1,0 0 1 1 1,1 1 0 0 0
68,8,8,prac,75,1,75,73,3,10.9966365599994,1.8871927599993796,3.15564266000001,0.875,0.8,5,1,2,1 1 1 1 1,1 0 1 1 1,0 1 0 0 0
68,9,9,prac,47,1,45,31,1,10.0961981599994,2.06862295999872,2.14923955999984,0.375,0.4,5,0,1.6,1 1 1 1 1,1 0 0 0 1,0 1 1 1 0
68,10,10,prac,100,3,100,99,3,4.12973065999995,1.6538279599999441,3.81663149999986,1,1,45,1,1.7,9 9 9 9 9,9 9 9 9 9,0 0 0 0 0
68,11,11,prac,27,1,17,10,2,11.1124802599998,1.6695739599999797,9.38512460000038,0.125,0.2,5,0,1.8,1 1 1 1 1,1 0 0 0 0,0 1 1 1 1
68,12,12,prac,47,1,55,64,1,5.3630601599998,1.3372346599999219,7.51626339999984,0.625,0.6,5,0,1.7,1 1 1 1 1,1 0 1 1 0,0 1 0 0 1
68,13,13,prac,65,2,62,50,2,4.76381155999934,1.5357642599992687,8.69629316000101,0.625,0.6222222222222222,45,0,1.7,9 9 9 9 9,6 6 4 7 5,3 3 5 2 4
68,14,14,prac,53,1,67,71,3,3.54577116000019,1.7363253599996824,5.44972450000023,0.625,0.6,5,0,1.8,1 1 1 1 1,1 0 0 1 1,0 1 1 0 0
68,15,15,prac,70,3,64,53,3,2.91307555999992,3.903663859999142,4.48455010000089,0.625,0.6222222222222222,45,0,1.6,9 9 9 9 9,5 6 5 6 6,4 3 4 3 3
70,1,1,prac,40,1,40,39,2,5.680032549999851,5.2818020499998966,5.358650749999924,0.5,0.4,5,1,1.9,1 1 1 1 1,0 0 0 1 1,1 1 1 0 0
70,2,2,prac,99,3,99,97,3,5.85163164999949,1.8156191499992929,3.700962349999827,1,1,45,1,1.8,9 9 9 9 9,9 9 9 9 9,0 0 0 0 0
70,3,3,prac,20,2,10,4,3,7.600474249999934,1.9880785499995,5.415831100000105,0.125,0.2,5,0,1.6,1 1 1 1 1,0 0 1 0 0,1 1 0 1 1
70,4,4,prac,80,2,67,18,1,3.5297222499998497,2.4407064499996522,8.929973000000246,0.875,0.8,5,1,1.8,1 1 1 1 1,1 0 1 1 1,0 1 0 0 0
70,5,5,prac,60,2,70,77,3,4.709804749999421,2.132381749999695,6.654912500000137,0.625,0.6,5,0,1.5,1 1 1 1 1,0 1 1 1 0,1 0 0 0 1
70,6,6,prac,85,NA,0,84,3,[],NA,[],0.875,0.8666666666666667,45,0,1.7,9 9 9 9 9,8 9 7 7 8,1 0 2 2 1
70,7,7,prac,12,3,16,29,2,6.0349756499999785,2.0656850499999564,5.024037099999987,0.125,0.13333333333333333,45,0,1.8,9 9 9 9 9,1 0 3 1 1,8 9 6 8 8
70,8,8,prac,45,3,35,28,3,4.324271150000186,1.80244914999912,15.025228649999917,0.375,0.37777777777777777,45,0,1.8,9 9 9 9 9,2 3 6 1 5,7 6 3 8 4
70,9,9,prac,40,2,30,24,3,4.418162649999886,1.866359349999584,2.888547749999816,0.375,0.4,5,0,1.7,1 1 1 1 1,0 0 1 1 0,1 1 0 0 1
70,10,10,prac,53,2,55,70,1,4.069254149999779,2.107760050000252,3.887952049999967,0.625,0.6222222222222222,45,0,2,9 9 9 9 9,5 6 5 5 7,4 3 4 4 2
70,11,11,prac,69,2,66,54,2,5.262772249999671,1.9714326499997696,5.587480149999919,0.625,0.6222222222222222,45,0,1.5,9 9 9 9 9,7 3 7 5 6,2 6 2 4 3
70,12,12,prac,60,2,66,75,1,3.728842649999933,1.880490249999184,5.438930399999663,0.625,0.6,5,0,1.8,1 1 1 1 1,1 0 0 1 1,0 1 1 0 0
70,13,13,prac,60,2,67,76,2,5.3716091499995855,1.8827136499999142,4.59724370000049,0.625,0.6,5,0,2,1 1 1 1 1,1 0 1 0 1,0 1 0 1 0
70,14,14,prac,30,1,37,46,3,10.535596249999799,3.624377749999894,7.982842649999839,0.625,0.6222222222222222,45,0,1.8,9 9 9 9 9,7 7 5 5 4,2 2 4 4 5
70,15,15,prac,80,1,90,97,2,5.227503250000154,4.123293449999437,6.040276100000028,0.875,0.8,5,0,1.6,1 1 1 1 1,1 1 1 0 1,0 0 0 1 0
71,1,1,prac,20,1,10,5,2,8.03493809999998,1.7192992000000231,6.8755536000001,0.125,0.2,5,0,1.5,1 1 1 1 1,0 0 1 0 0,1 1 0 1 1
71,2,2,prac,40,1,50,82,1,7.85158579999984,1.4696106000001237,12.7936690000001,0.5,0.4,5,1,1.6,1 1 1 1 1,0 0 1 0 1,1 1 0 1 0
71,3,3,prac,60,1,70,75,2,4.71793899999989,1.4612996999999268,7.4673299000001,0.625,0.6,5,0,1.6,1 1 1 1 1,1 1 0 0 1,0 0 1 1 0
71,4,4,prac,40,1,24,24,3,5.18456479999986,1.5615035999999236,8.24213520000012,0.375,0.4,5,0,2,1 1 1 1 1,0 0 0 1 1,1 1 1 0 0
71,5,5,prac,15,3,10,1,3,14.3106823000001,1.2615046000000802,4.46327190000011,0.125,0.13333333333333333,45,0,1.8,9 9 9 9 9,0 1 0 3 2,9 8 9 6 7
71,6,6,prac,80,3,80,65,2,4.88449319999995,1.386491800000158,5.10531059999994,0.625,0.6222222222222222,45,0,1.7,9 9 9 9 9,4 8 6 7 3,5 1 3 2 6
71,7,7,prac,75,2,75,60,1,12.3271617,2.7445090000001073,3.67119790000015,0.625,0.6222222222222222,45,0,1.6,9 9 9 9 9,7 7 6 4 4,2 2 3 5 5
71,8,8,prac,80,1,94,95,3,4.68451800000003,1.8197469000001547,10.2685713000001,0.875,0.8,5,0,1.5,1 1 1 1 1,0 1 1 1 1,1 0 0 0 0
71,9,9,prac,60,3,70,77,3,4.62624389999996,1.3445975999998154,7.45923570000014,0.625,0.6222222222222222,45,0,1.6,9 9 9 9 9,6 5 8 3 6,3 4 1 6 3
71,10,10,prac,50,3,45,35,3,3.85944519999998,2.853361599999971,3.36296319999997,0.375,0.37777777777777777,45,0,1.8,9 9 9 9 9,2 4 5 2 4,7 5 4 7 5
71,11,11,prac,97,3,97,99,3,4.74288019999995,1.6699444999999287,5.76786680000009,1,1,45,1,1.8,9 9 9 9 9,9 9 9 9 9,0 0 0 0 0
71,12,12,prac,60,1,70,75,3,6.94289260000005,2.3763450999999804,5.74233589999994,0.625,0.6,5,0,1.8,1 1 1 1 1,1 1 1 0 0,0 0 0 1 1
71,13,13,prac,60,1,60,75,1,4.04282339999986,1.4444913000002089,3.63023679999992,0.625,0.6,5,0,2,1 1 1 1 1,1 0 0 1 1,0 1 1 0 0
71,14,14,prac,94,3,94,79,1,7.07642800000008,2.470002499999964,4.09636050000017,0.875,0.8666666666666667,45,0,1.8,9 9 9 9 9,7 9 9 6 8,2 0 0 3 1
71,15,15,prac,80,1,80,80,3,6.17636289999996,1.994636200000059,3.63804780000009,0.875,0.8,5,1,1.6,1 1 1 1 1,1 1 1 1 0,0 0 0 0 1
73,1,1,prac,20,2,10,2,3,9.27976609000052,2.302598689999286,6.12860323999939,0.125,0.2,5,0,1.8,1 1 1 1 1,1 0 0 0 0,0 1 1 1 1
73,2,2,prac,55,2,55,70,1,7.06247458999951,1.7696765899991078,6.28306583999893,0.625,0.6222222222222222,45,0,1.8,9 9 9 9 9,4 7 6 6 5,5 2 3 3 4
73,3,3,prac,80,1,85,97,2,9.53023478999967,1.4023066899990226,2.86282214000039,0.875,0.8,5,0,1.7,1 1 1 1 1,0 1 1 1 1,1 0 0 0 0
73,4,4,prac,80,1,80,78,3,4.29627558999982,7.335671589999947,6.31928555000013,0.875,0.8,5,1,1.9,1 1 1 1 1,1 1 0 1 1,0 0 1 0 0
73,5,5,prac,45,2,45,27,2,6.04516178999984,1.9025315899989437,4.81675383999936,0.375,0.37777777777777777,45,0,1.7,9 9 9 9 9,2 4 3 3 5,7 5 6 6 4
73,6,6,prac,60,2,60,75,1,3.69654448999881,1.820264190000671,3.78511234999951,0.625,0.6,5,0,1.8,1 1 1 1 1,1 1 1 0 0,0 0 0 1 1
73,7,7,prac,60,2,65,75,2,5.44655978999981,2.0028570900003615,3.98701185000027,0.625,0.6,5,0,1.9,1 1 1 1 1,1 0 1 0 1,0 1 0 1 0
73,8,8,prac,65,3,58,49,3,5.57902789000036,2.502677589999621,3.95140065000032,0.625,0.6222222222222222,45,0,1.9,9 9 9 9 9,5 6 7 6 4,4 3 2 3 5
73,9,9,prac,60,1,70,77,3,5.21284768999976,1.9523874899996372,5.01979754999957,0.625,0.6,5,0,1.9,1 1 1 1 1,1 0 0 1 1,0 1 1 0 0
73,10,10,prac,40,1,40,82,1,8.06161628999871,1.8027365899997676,3.95155465000062,0.5,0.4,5,1,1.9,1 1 1 1 1,0 1 0 0 1,1 0 1 1 0
73,11,11,prac,97,3,97,95,3,4.61331229000007,2.151783090000208,3.08373134000067,1,1,45,1,1.8,9 9 9 9 9,9 9 9 9 9,0 0 0 0 0
73,12,12,prac,75,2,80,90,2,4.86264888999904,1.8024536900002204,3.58560154999941,0.875,0.8666666666666667,45,0,1.9,9 9 9 9 9,5 9 8 8 9,4 0 1 1 0
73,13,13,prac,40,1,33,25,3,6.01251459000014,1.6691935899989403,4.55362074999994,0.375,0.4,5,0,1.9,1 1 1 1 1,0 0 1 1 0,1 1 0 0 1
73,14,14,prac,55,2,55,72,2,5.07916278999983,1.68589208999947,3.08705695000026,0.625,0.6222222222222222,45,0,1.9,9 9 9 9 9,6 9 3 7 3,3 0 6 2 6
73,15,15,prac,15,3,15,1,2,5.39689858999918,2.969517189999351,5.21727875000033,0.125,0.13333333333333333,45,0,1.6,9 9 9 9 9,0 2 1 3 0,9 7 8 6 9
76,1,1,prac,60,2,60,78,2,8.66171555000028,2.4198430499998267,4.56379360000005,0.625,0.6,5,0,1.5,1 1 1 1 1,1 1 0 1 0,0 0 1 0 1
76,2,2,prac,30,2,40,45,3,5.37843735000001,2.2033380499999566,7.1989822999999,0.625,0.6222222222222222,45,0,1.7,9 9 9 9 9,7 6 4 6 5,2 3 5 3 4
76,3,3,prac,80,3,90,97,3,6.31237595000016,2.5864207500001157,5.58666815000015,0.875,0.8,5,0,1.8,1 1 1 1 1,0 1 1 1 1,1 0 0 0 0
76,4,4,prac,15,3,10,1,2,6.04637575000015,2.120488850000129,3.93210780000004,0.125,0.13333333333333333,45,0,1.5,9 9 9 9 9,1 0 3 1 1,8 9 6 8 8
76,5,5,prac,60,2,60,75,1,6.94683495000004,2.436399649999885,3.66444999999976,0.625,0.6,5,0,1.9,1 1 1 1 1,1 0 0 1 1,0 1 1 0 0
76,6,6,prac,80,3,80,97,1,4.96341995000012,2.9541244500001085,2.79875609999976,0.875,0.8666666666666667,45,0,1.8,9 9 9 9 9,8 7 8 8 8,1 2 1 1 1
76,7,7,prac,80,3,80,33,1,4.41339244999995,2.969424350000054,2.7808199000001,0.875,0.8,5,1,1.9,1 1 1 1 1,1 1 1 1 0,0 0 0 0 1
76,8,8,prac,60,2,65,75,2,7.26290455000003,2.1037438500000007,4.36498469999992,0.625,0.6222222222222222,45,0,1.9,9 9 9 9 9,6 6 4 6 6,3 3 5 3 3
76,9,9,prac,100,3,100,98,3,2.64619975000005,1.8538271499999155,3.16267139999991,1,1,45,1,1.6,9 9 9 9 9,9 9 9 9 9,0 0 0 0 0
76,10,10,prac,60,3,65,75,3,3.97917565000012,2.76919625000005,4.39786589999994,0.625,0.6,5,0,1.6,1 1 1 1 1,1 1 1 0 0,0 0 0 1 1
76,11,11,prac,55,3,55,70,1,3.07849104999991,1.6701931500001592,4.25950040000021,0.625,0.6222222222222222,45,0,1.9,9 9 9 9 9,4 6 6 6 6,5 3 3 3 3
76,12,12,prac,40,3,40,25,2,4.54519204999997,1.719154650000064,2.51820505000023,0.375,0.37777777777777777,45,0,1.7,9 9 9 9 9,2 2 5 3 5,7 7 4 6 4
76,13,13,prac,20,3,15,5,3,2.36291384999981,1.7034934499999963,3.26565830000004,0.125,0.2,5,0,1.8,1 1 1 1 1,1 0 0 0 0,0 1 1 1 1
76,14,14,prac,40,3,40,22,1,3.16280904999985,2.403608349999786,2.69910550000009,0.375,0.4,5,0,1.9,1 1 1 1 1,1 0 0 1 0,0 1 1 0 1
76,15,15,prac,40,3,40,42,2,4.16221414999995,1.7526206499999262,2.55209484999978,0.5,0.4,5,1,1.8,1 1 1 1 1,0 0 0 1 1,1 1 1 0 0
79,1,1,prac,12,2,12,30,1,10.1688889900001,1.1734716700000263,5.98119480000014,0.125,0.13333333333333333,45,0,1.6,9 9 9 9 9,2 1 2 1 0,7 8 7 8 9
79,2,2,prac,80,1,95,98,3,4.67901608999978,2.1052419699997245,10.6630565999997,0.875,0.8,5,0,1.8,1 1 1 1 1,1 0 1 1 1,0 1 0 0 0
79,3,3,prac,45,2,38,30,3,6.25507928999991,3.5136595700000726,7.85291989000007,0.375,0.37777777777777777,45,0,1.9,9 9 9 9 9,3 4 3 5 2,6 5 6 4 7
79,4,4,prac,86,3,88,99,2,11.8416689899998,3.4226581699997496,7.04807720000008,0.875,0.8666666666666667,45,0,1.8,9 9 9 9 9,8 7 8 8 8,1 2 1 1 1
79,5,5,prac,77,2,75,59,1,8.03308588999994,1.5130071700000371,6.00668299000017,0.625,0.6222222222222222,45,0,1.8,9 9 9 9 9,5 5 4 7 7,4 4 5 2 2
79,6,6,prac,80,1,80,80,3,4.23325408999995,2.054904070000248,4.1240372000002,0.875,0.8,5,1,1.5,1 1 1 1 1,1 1 1 0 1,0 0 0 1 0
79,7,7,prac,70,2,63,55,2,3.90139649000002,1.4240288699998018,4.6710178899998,0.625,0.6222222222222222,45,0,1.9,9 9 9 9 9,7 4 7 5 5,2 5 2 4 4
79,8,8,prac,60,1,72,76,2,3.92142409000007,0.99713036999992255,9.93242538999993,0.625,0.6,5,0,1.6,1 1 1 1 1,0 0 1 1 1,1 1 0 0 0
79,9,9,prac,60,1,67,77,1,5.62164089000021,1.7054301699999996,11.6677166900001,0.625,0.6,5,0,1.9,1 1 1 1 1,0 1 1 1 0,1 0 0 0 1
79,10,10,prac,35,2,45,50,3,5.87423159000014,1.554912069999773,7.77953048999984,0.625,0.6222222222222222,45,0,1.8,9 9 9 9 9,6 6 6 5 5,3 3 3 4 4
79,11,11,prac,20,1,8,5,3,3.43804649000003,1.3408914699998604,4.7056319899998,0.125,0.2,5,0,2,1 1 1 1 1,0 0 0 0 1,1 1 1 1 0
79,12,12,prac,100,3,99,98,3,2.47958769000002,3.291143669999883,3.6277597899998,1,1,45,1,1.5,9 9 9 9 9,9 9 9 9 9,0 0 0 0 0
79,13,13,prac,40,1,61,82,1,4.51317489000007,1.214652569999771,10.4660192899998,0.5,0.4,5,1,1.9,1 1 1 1 1,1 0 0 1 0,0 1 1 0 1
79,14,14,prac,40,1,28,25,3,2.32124479000004,1.4989819699999316,6.07956749000004,0.375,0.4,5,0,1.6,1 1 1 1 1,1 1 0 0 0,0 0 1 1 1
79,15,15,prac,60,1,75,77,3,4.64653958999997,1.7156515699998636,5.82965079000019,0.625,0.6,5,0,1.7,1 1 1 1 1,1 0 1 1 0,0 1 0 0 1
80,1,1,prac,40,1,52,55,3,6.86347727999964,2.1798845399998754,13.1614228800001,0.625,0.6,5,0,1.8,1 1 1 1 1,0 1 1 0 1,1 0 0 1 0
80,2,2,prac,60,2,67,75,2,3.19083888,2.13814253999999,5.77674067999988,0.625,0.6222222222222222,45,0,1.7,9 9 9 9 9,5 8 7 4 4,4 1 2 5 5
80,3,3,prac,90,2,88,75,1,7.16846538000004,2.6002769399997305,10.3986242799999,0.875,0.8666666666666667,45,0,1.8,9 9 9 9 9,7 8 8 8 8,2 1 1 1 1
80,4,4,prac,100,3,99,99,3,3.10707728000034,2.1104243399997813,9.26299788000006,1,1,45,1,1.9,9 9 9 9 9,9 9 9 9 9,0 0 0 0 0
80,5,5,prac,10,2,15,25,2,9.08538957999986,2.2890843400002723,10.5654271799997,0.125,0.13333333333333333,45,0,2,9 9 9 9 9,0 1 1 2 2,9 8 8 7 7
80,6,6,prac,40,1,39,38,2,5.18826937999961,3.1335553399997025,4.53281407999998,0.5,0.4,5,1,1.9,1 1 1 1 1,0 0 0 1 1,1 1 1 0 0
80,7,7,prac,58,2,68,75,3,7.17976707999992,1.9555980400000408,6.57007687999976,0.625,0.6222222222222222,45,0,2,9 9 9 9 9,5 6 6 7 4,4 3 3 2 5
80,8,8,prac,40,1,34,25,2,4.36811707999982,2.2161947399997644,6.4957803999996,0.375,0.4,5,0,1.8,1 1 1 1 1,1 0 0 0 1,0 1 1 1 0
80,9,9,prac,20,1,12,3,2,4.99987598000007,2.304572239999743,8.86545118000004,0.125,0.2,5,0,1.6,1 1 1 1 1,1 0 0 0 0,0 1 1 1 1
80,10,10,prac,70,2,67,52,1,5.20495638000011,2.140885839999555,6.27971469999966,0.625,0.6222222222222222,45,0,1.6,9 9 9 9 9,7 6 6 5 4,2 3 3 4 5
80,11,11,prac,60,1,65,76,1,3.81219127999975,1.996732840000277,16.5324339799995,0.625,0.6,5,0,1.6,1 1 1 1 1,0 1 1 1 0,1 0 0 0 1
80,12,12,prac,45,1,40,30,2,7.80810188000032,1.879683440000008,6.10331887999973,0.375,0.37777777777777777,45,0,1.8,9 9 9 9 9,5 3 1 5 3,4 6 8 4 6
80,13,13,prac,80,1,80,80,2,7.05770127999949,2.15375954000001,4.30149308000045,0.875,0.8,5,1,1.8,1 1 1 1 1,0 1 1 1 1,1 0 0 0 0
80,14,14,prac,60,1,69,75,2,4.30484718000025,1.749498340000173,7.53967047999959,0.625,0.6,5,0,1.5,1 1 1 1 1,0 1 0 1 1,1 0 1 0 0
80,15,15,prac,80,1,90,95,3,5.20500788000027,2.3315135400002873,7.15222497999957,0.875,0.8,5,0,1.9,1 1 1 1 1,1 1 1 0 1,0 0 0 1 0
83,1,1,prac,100,3,99,98,3,4.04271939999944,3.002957100000458,7.64239089999955,1,1,45,1,1.6,9 9 9 9 9,9 9 9 9 9,0 0 0 0 0
83,2,2,prac,88,3,82,73,1,12.1354802000005,2.011651200000415,10.5267391999996,0.875,0.8666666666666667,45,0,1.8,9 9 9 9 9,7 6 9 8 9,2 3 0 1 0
83,3,3,prac,40,2,32,22,1,9.1018140999995,2.236398299999564,10.1015595999997,0.375,0.4,5,0,1.5,1 1 1 1 1,0 1 1 0 0,1 0 0 1 1
83,4,4,prac,65,2,60,50,3,14.0106842000005,3.278229700000338,9.32256320000033,0.625,0.6222222222222222,45,0,1.5,9 9 9 9 9,6 5 7 4 6,3 4 2 5 3
83,5,5,prac,60,3,67,76,1,10.5102852999999,2.5111801000002743,13.8515152999998,0.625,0.6,5,0,1.6,1 1 1 1 1,0 1 1 1 0,1 0 0 0 1
83,6,6,prac,62,2,70,77,1,12.9939029999996,2.2948452000000543,10.6513611,0.625,0.6222222222222222,45,0,1.9,9 9 9 9 9,6 6 8 4 4,3 3 1 5 5
83,7,7,prac,25,2,34,41,3,9.7518399999999,4.703528300000471,11.4264886000001,0.375,0.37777777777777777,45,0,1.6,9 9 9 9 9,5 3 4 2 3,4 6 5 7 6
83,8,8,prac,40,3,57,82,1,8.70170419999977,2.24480130000029,18.0103262999992,0.5,0.4,5,1,1.9,1 1 1 1 1,0 1 1 0 0,1 0 0 1 1
83,9,9,prac,14,3,12,1,1,5.60133440000027,2.2611120000001392,7.64304739999989,0.125,0.13333333333333333,45,0,1.6,9 9 9 9 9,1 3 1 0 1,8 6 8 9 8
83,10,10,prac,60,2,66,76,2,5.07615290000012,1.7282870999997613,8.45974430000024,0.625,0.6,5,0,1.8,1 1 1 1 1,0 1 0 1 1,1 0 1 0 0
83,11,11,prac,58,2,66,74,2,8.76842659999966,2.228260899999441,8.59360019999986,0.625,0.6222222222222222,45,0,1.6,9 9 9 9 9,5 5 8 5 5,4 4 1 4 4
83,12,12,prac,80,1,81,82,2,6.25139180000042,4.03621320000093,5.45794190000015,0.875,0.8,5,1,1.7,1 1 1 1 1,1 1 1 1 0,0 0 0 0 1
83,13,13,prac,80,1,87,95,1,6.41805310000018,1.8363457999985258,9.40882320000128,0.875,0.8,5,0,1.9,1 1 1 1 1,1 1 1 0 1,0 0 0 1 0
83,14,14,prac,60,1,71,75,3,4.72614710000016,1.7614886999999726,16.1770520999999,0.625,0.6,5,0,1.8,1 1 1 1 1,1 0 1 0 1,0 1 0 1 0
83,15,15,prac,20,1,12,3,1,6.6180561000001,3.1611656000004587,6.60912230000031,0.125,0.2,5,0,1.9,1 1 1 1 1,0 1 0 0 0,1 0 1 1 1
86,1,1,prac,60,3,60,76,1,7.02888910000001,1.5182694999998603,6.36092829999984,0.625,0.6,5,0,1.6,1 1 1 1 1,1 1 0 1 0,0 0 1 0 1
86,2,2,prac,100,3,100,99,3,2.59671829999979,1.853901399999586,3.91762489999996,1,1,45,1,1.7,9 9 9 9 9,9 9 9 9 9,0 0 0 0 0
86,3,3,prac,55,2,60,72,2,6.62894609999989,1.2027909999997064,5.41630279999981,0.625,0.6222222222222222,45,0,1.6,9 9 9 9 9,4 7 6 6 5,5 2 3 3 4
86,4,4,prac,88,2,82,70,3,15.1960670000001,1.91901299999995,7.96480559999986,0.875,0.8666666666666667,45,0,1.9,9 9 9 9 9,8 7 8 7 9,1 2 1 2 0
86,5,5,prac,40,3,40,40,3,9.28031259999966,1.9371179999998276,4.25365959999999,0.5,0.4,5,1,1.6,1 1 1 1 1,0 0 1 1 0,1 1 0 0 1
86,6,6,prac,80,3,80,95,1,3.44548640000016,2.136462899999742,4.45097040000019,0.875,0.8,5,0,1.8,1 1 1 1 1,1 1 1 0 1,0 0 0 1 0
86,7,7,prac,60,3,60,76,2,6.52876540000011,2.168782199999896,7.98453489999997,0.625,0.6,5,0,1.7,1 1 1 1 1,1 0 0 1 1,0 1 1 0 0
86,8,8,prac,60,3,60,75,3,4.06183310000006,2.1200008999999227,4.03180199999997,0.625,0.6,5,0,1.7,1 1 1 1 1,1 1 0 1 0,0 0 1 0 1
86,9,9,prac,80,3,80,80,3,4.49534129999984,2.0856837999997424,5.92023189999986,0.875,0.8,5,1,1.9,1 1 1 1 1,1 0 1 1 1,0 1 0 0 0
86,10,10,prac,65,2,58,50,3,5.86306719999993,1.4854444999998577,6.31799929999988,0.625,0.6222222222222222,45,0,1.5,9 9 9 9 9,4 6 6 4 8,5 3 3 5 1
86,11,11,prac,40,3,40,25,1,7.96209359999966,2.085801899999751,6.03200360000005,0.375,0.4,5,0,1.6,1 1 1 1 1,0 1 1 0 0,1 0 0 1 1
86,12,12,prac,90,2,10,15,1,14.8468283,2.1191656999999395,9.19649379999964,0.125,0.13333333333333333,45,0,1.7,9 9 9 9 9,0 3 2 1 0,9 6 7 8 9
86,13,13,prac,45,2,38,30,3,5.04532250000011,2.0868035999999393,5.78551979999997,0.375,0.37777777777777777,45,0,1.7,9 9 9 9 9,2 3 3 6 3,7 6 6 3 6
86,14,14,prac,65,1,65,50,1,4.6970918999998,1.4031451999999263,3.29421460000003,0.625,0.6222222222222222,45,0,1.8,9 9 9 9 9,5 5 5 7 6,4 4 4 2 3
86,15,15,prac,20,3,20,4,3,4.64709989999983,1.5532515999998395,4.58779170000003,0.125,0.2,5,0,1.6,1 1 1 1 1,0 0 0 1 0,1 1 1 0 1
87,1,1,prac,30,2,20,12,2,7.915842200000043,2.246611099999427,10.977379200000541,0.125,0.13333333333333333,45,0,1.9,9 9 9 9 9,2 2 1 0 1,7 7 8 9 8
87,2,2,prac,85,NA,0,98,3,[],NA,[],0.875,0.8,5,1,1.9,1 1 1 1 1,1 1 1 0 1,0 0 0 1 0
87,3,3,prac,70,2,65,52,1,5.554988099998809,2.0993226000000504,8.851657500001238,0.625,0.6222222222222222,45,0,2,9 9 9 9 9,7 2 6 7 6,2 7 3 2 3
87,4,4,prac,80,2,92,97,3,6.471806300000935,2.03041310000026,15.056980100001056,0.875,0.8666666666666667,45,0,1.9,9 9 9 9 9,9 8 8 8 6,0 1 1 1 3
87,5,5,prac,7,2,21,24,3,11.64746229999946,4.4661010999998325,7.502788600000713,0.375,0.4,5,0,1.7,1 1 1 1 1,0 0 1 0 1,1 1 0 1 0
87,6,6,prac,60,2,74,78,3,5.80994550000014,1.7826473000004626,9.64042470000004,0.625,0.6222222222222222,45,0,1.5,9 9 9 9 9,5 5 8 6 4,4 4 1 3 5
87,7,7,prac,95,3,95,94,3,10.010488299999452,2.365851699999439,7.65684229999988,1,1,45,1,1.8,9 9 9 9 9,9 9 9 9 9,0 0 0 0 0
87,8,8,prac,45,2,45,45,2,7.555290899999818,1.640856299999541,3.9720651999996335,0.5,0.4,5,1,1.8,1 1 1 1 1,0 1 0 1 0,1 0 1 0 1
87,9,9,prac,55,2,65,71,3,4.190873299999112,3.146330300000045,5.230760600001304,0.625,0.6,5,0,1.7,1 1 1 1 1,0 0 1 1 1,1 1 0 0 0
87,10,10,prac,15,2,5,1,2,5.154956800000036,2.039102599999751,5.750554300000658,0.125,0.2,5,0,1.9,1 1 1 1 1,0 0 0 0 1,1 1 1 1 0
87,11,11,prac,30,2,40,47,3,6.030045399999835,6.033525099999679,4.51273559999936,0.375,0.37777777777777777,45,0,1.6,9 9 9 9 9,4 4 4 3 2,5 5 5 6 7
87,12,12,prac,91,2,83,75,2,11.316934700001184,2.146290800001225,5.609930300000087,0.875,0.8,5,0,1.8,1 1 1 1 1,1 1 1 1 0,0 0 0 0 1
87,13,13,prac,60,2,70,78,2,12.522585300000173,2.023849200000768,9.586279699999977,0.625,0.6,5,0,1.8,1 1 1 1 1,1 1 1 0 0,0 0 0 1 1
87,14,14,prac,67,2,62,49,1,8.405347699999766,2.458960500000103,10.999486400000023,0.625,0.6,5,0,1.6,1 1 1 1 1,0 1 0 1 1,1 0 1 0 0
87,15,15,prac,65,2,60,50,2,6.1850307999993674,2.6472968000007313,5.652627800000118,0.625,0.6222222222222222,45,0,1.8,9 9 9 9 9,8 5 4 5 6,1 4 5 4 3
88,1,1,prac,100,3,100,99,3,4.18572132000008,1.9654513599989514,2.68203792000077,1,1,45,1,2,9 9 9 9 9,9 9 9 9 9,0 0 0 0 0
88,2,2,prac,92,2,86,76,2,6.32177301999945,2.1575566600004095,6.00472672000069,0.875,0.8666666666666667,45,0,1.8,9 9 9 9 9,7 9 7 9 7,2 0 2 0 2
88,3,3,prac,20,2,20,3,3,7.36357821999991,1.816308260000369,4.68495912000071,0.125,0.2,5,0,1.8,1 1 1 1 1,0 0 0 1 0,1 1 1 0 1
88,4,4,prac,50,2,50,67,2,3.70418292000068,2.037999160000254,3.37753252000039,0.625,0.6222222222222222,45,0,1.9,9 9 9 9 9,5 4 6 5 8,4 5 3 4 1
88,5,5,prac,35,2,35,50,1,4.89744692000113,2.131709060000503,3.17201401999955,0.375,0.4,5,0,1.8,1 1 1 1 1,0 1 1 0 0,1 0 0 1 1
88,6,6,prac,10,2,21,27,3,2.7428974200011,1.9322327600011704,2.70151082000029,0.125,0.13333333333333333,45,0,1.5,9 9 9 9 9,1 1 1 1 2,8 8 8 8 7
88,7,7,prac,80,2,80,80,3,5.94115281999984,1.8394435599993813,2.83011532,0.875,0.8,5,1,1.8,1 1 1 1 1,1 1 1 1 0,0 0 0 0 1
88,8,8,prac,50,2,50,67,1,3.9626560200004,2.0557275600003777,3.75463742000011,0.625,0.6222222222222222,45,0,1.8,9 9 9 9 9,6 6 4 5 7,3 3 5 4 2
88,9,9,prac,62,2,64,80,1,4.77647071999945,2.2760837600008017,4.12812391999978,0.625,0.6,5,0,1.6,1 1 1 1 1,1 0 1 0 1,0 1 0 1 0
88,10,10,prac,70,2,70,52,2,5.42228842000077,2.2992219600009776,3.69251732000066,0.625,0.6,5,0,1.7,1 1 1 1 1,0 0 1 1 1,1 1 0 0 0
88,11,11,prac,65,2,65,50,3,4.48273502000029,3.0966202600011457,2.85798202000115,0.625,0.6,5,0,1.9,1 1 1 1 1,1 1 0 0 1,0 0 1 1 0
88,12,12,prac,45,2,45,27,2,4.93482682000104,1.7638128599992342,2.80930111999987,0.375,0.37777777777777777,45,0,1.6,9 9 9 9 9,3 4 4 5 1,6 5 5 4 8
88,13,13,prac,80,2,80,97,2,5.47652162000031,2.041712860000189,3.90536852000059,0.875,0.8,5,0,1.7,1 1 1 1 1,1 1 1 0 1,0 0 0 1 0
88,14,14,prac,40,2,49,82,1,9.6063896200003,2.0561614599992026,2.17168872000093,0.5,0.4,5,1,1.8,1 1 1 1 1,0 1 0 1 0,1 0 1 0 1
88,15,15,prac,49,1,58,65,3,5.1682156199995,1.6240977600000406,3.08432922000065,0.625,0.6222222222222222,45,0,1.8,9 9 9 9 9,6 6 6 5 5,3 3 3 4 4
90,1,1,prac,22,2,30,40,3,9.11221673000091,2.319383529999868,7.66258768000171,0.875,0.8666666666666667,45,0,1.8,9 9 9 9 9,8 7 7 8 9,1 2 2 1 0
90,2,2,prac,20,2,14,5,3,13.6470111300005,2.919452430000092,8.15764758000023,0.125,0.2,5,0,1.7,1 1 1 1 1,0 0 1 0 0,1 1 0 1 1
90,3,3,prac,10,2,16,26,3,11.2633642300007,4.686534730000858,4.56416997999986,0.125,0.13333333333333333,45,0,1.6,9 9 9 9 9,0 2 1 2 1,9 7 8 7 8
90,4,4,prac,40,2,40,82,1,9.56203433000064,5.085567929999343,4.5521956499997,0.5,0.4,5,1,1.7,1 1 1 1 1,0 0 1 0 1,1 1 0 1 0
90,5,5,prac,45,2,50,60,3,5.21258503000081,2.0022371300001396,7.95140785000058,0.625,0.6222222222222222,45,0,1.6,9 9 9 9 9,5 5 7 4 7,4 4 2 5 2
90,6,6,prac,59,2,60,75,2,15.2802853300009,3.3371878300013122,8.43086858000152,0.625,0.6,5,0,1.9,1 1 1 1 1,1 0 1 0 1,0 1 0 1 0
90,7,7,prac,50,2,57,68,2,3.29624563000016,4.036347029999888,7.01782554999954,0.625,0.6222222222222222,45,0,1.6,9 9 9 9 9,6 6 5 5 6,3 3 4 4 3
90,8,8,prac,90,2,90,90,3,9.17877212999974,4.669157529999211,4.71910695000042,1,1,45,1,1.5,9 9 9 9 9,9 9 9 9 9,0 0 0 0 0
90,9,9,prac,70,2,67,55,1,7.14653302999977,2.1205423299998074,5.61607378000008,0.625,0.6222222222222222,45,0,1.6,9 9 9 9 9,5 7 5 6 5,4 2 4 3 4
90,10,10,prac,50,2,58,67,1,9.73046623000118,2.054019130000597,5.69754088000082,0.625,0.6,5,0,1.9,1 1 1 1 1,1 1 1 0 0,0 0 0 1 1
90,11,11,prac,55,2,63,73,3,6.62894822999988,2.319722930000353,3.98390474999997,0.625,0.6,5,0,1.9,1 1 1 1 1,1 1 0 1 0,0 0 1 0 1
90,12,12,prac,40,2,35,25,3,4.0793295300009,2.403756629999407,3.31849095000052,0.375,0.37777777777777777,45,0,1.9,9 9 9 9 9,4 3 5 3 2,5 6 4 6 7
90,13,13,prac,80,2,80,95,1,8.76229662999958,2.3029473300011887,6.58754514999964,0.875,0.8,5,0,1.6,1 1 1 1 1,1 1 1 1 0,0 0 0 0 1
90,14,14,prac,50,1,50,35,1,7.16353293000066,4.969396830001642,3.28525015000014,0.375,0.4,5,0,1.9,1 1 1 1 1,0 1 0 1 0,1 0 1 0 1
90,15,15,prac,65,2,65,66,1,14.2790505299999,2.9700247300006595,3.88359175000096,0.875,0.8,5,1,1.8,1 1 1 1 1,1 1 0 1 1,0 0 1 0 0
91,1,1,prac,80,1,80,98,3,6.32846774000063,1.4855091399995217,9.42883124000036,0.875,0.8,5,0,1.9,1 1 1 1 1,1 0 1 1 1,0 1 0 0 0
91,2,2,prac,40,1,50,58,3,3.83012873999905,2.1195860400002857,4.63019454000005,0.625,0.6,5,0,1.7,1 1 1 1 1,0 1 1 1 0,1 0 0 0 1
91,3,3,prac,30,3,30,47,2,5.1794051400002,1.4029874400002882,3.12936804000037,0.375,0.37777777777777777,45,0,1.6,9 9 9 9 9,5 2 3 4 3,4 7 6 5 6
91,4,4,prac,85,2,85,99,2,7.5796527399998,1.6024481399999786,6.69196223999916,0.875,0.8666666666666667,45,0,1.9,9 9 9 9 9,6 7 8 9 9,3 2 1 0 0
91,5,5,prac,20,1,10,2,3,3.34527934000107,1.703081640000164,5.98349064000013,0.125,0.2,5,0,1.6,1 1 1 1 1,0 1 0 0 0,1 0 1 1 1
91,6,6,prac,60,1,65,75,2,6.44508244000008,1.4204900400009137,4.29763773999912,0.625,0.6,5,0,1.7,1 1 1 1 1,1 1 0 0 1,0 0 1 1 0
91,7,7,prac,55,2,60,72,2,4.13041253999927,2.5861251400001493,3.69848103999902,0.625,0.6222222222222222,45,0,1.8,9 9 9 9 9,8 4 4 5 7,1 5 5 4 2
91,8,8,prac,15,3,15,1,1,4.59549523999976,1.3855226400009997,7.31721240000024,0.125,0.13333333333333333,45,0,1.8,9 9 9 9 9,1 1 2 1 1,8 8 7 8 8
91,9,9,prac,40,1,30,25,3,3.53047963999961,2.302749240000594,4.19886973999928,0.375,0.4,5,0,2,1 1 1 1 1,1 0 0 0 1,0 1 1 1 0
91,10,10,prac,45,2,50,62,3,4.6632728400009,1.6538934399995924,3.26546754000083,0.625,0.6222222222222222,45,0,1.5,9 9 9 9 9,7 8 6 4 3,2 1 3 5 6
91,11,11,prac,40,1,40,40,2,3.74628133999977,1.736592240000391,3.79590053999891,0.5,0.4,5,1,1.8,1 1 1 1 1,0 1 0 0 1,1 0 1 1 0
91,12,12,prac,80,1,80,81,1,4.18045484000049,1.286000239999339,4.35143799999969,0.875,0.8,5,1,1.6,1 1 1 1 1,0 1 1 1 1,1 0 0 0 0
91,13,13,prac,60,1,65,75,1,7.43038443999922,1.5361744399997406,5.73161123999853,0.625,0.6,5,0,2,1 1 1 1 1,0 0 1 1 1,1 1 0 0 0
91,14,14,prac,98,3,98,99,3,4.87997443999939,1.3703525399987484,5.25151569999889,1,1,45,1,1.8,9 9 9 9 9,9 9 9 9 9,0 0 0 0 0
91,15,15,prac,45,2,45,61,1,5.47986833999948,1.1860942399998748,3.96201213999939,0.625,0.6222222222222222,45,0,1.9,9 9 9 9 9,6 8 6 4 4,3 1 3 5 5
93,1,1,prac,78,1,90,95,3,7.17178550000062,2.2238284000013664,5.19339120000041,0.875,0.8,5,0,1.6,1 1 1 1 1,0 1 1 1 1,1 0 0 0 0
93,2,2,prac,10,2,11,12,3,5.51330099999996,2.3892843999983597,10.7541097999992,0.5,0.4,5,1,1.8,1 1 1 1 1,1 0 0 0 1,0 1 1 1 0
93,3,3,prac,46,1,59,63,2,4.27230789999976,2.290782400000353,9.34152190000077,0.625,0.6,5,0,1.9,1 1 1 1 1,0 1 0 1 1,1 0 1 0 0
93,4,4,prac,7,3,11,23,1,5.16213089999928,1.5646334000002753,6.17719529999886,0.125,0.13333333333333333,45,0,1.5,9 9 9 9 9,1 1 0 2 2,8 8 9 7 7
93,5,5,prac,27,1,12,11,3,7.06347090000054,2.808183699999063,8.37118050000117,0.125,0.2,5,0,1.5,1 1 1 1 1,0 0 1 0 0,1 1 0 1 1
93,6,6,prac,96,3,94,80,2,5.39320899999984,2.540954899999633,6.01435610000044,0.875,0.8666666666666667,45,0,1.6,9 9 9 9 9,9 7 6 8 9,0 2 3 1 0
93,7,7,prac,100,2,98,98,3,2.50234710000041,2.816074100000151,4.26028940000015,1,1,45,1,1.6,9 9 9 9 9,9 9 9 9 9,0 0 0 0 0
93,8,8,prac,64,2,55,49,1,5.24317100000007,1.3157440999993923,5.09688639999877,0.625,0.6222222222222222,45,0,1.8,9 9 9 9 9,6 4 4 8 6,3 5 5 1 3
93,9,9,prac,50,1,63,66,3,3.02906030000031,2.279781899998852,3.5831905999994,0.625,0.6222222222222222,45,0,1.9,9 9 9 9 9,6 7 7 3 5,3 2 2 6 4
93,10,10,prac,38,1,40,54,2,6.07110190000003,2.0047967000000426,6.46297089999916,0.375,0.37777777777777777,45,0,1.7,9 9 9 9 9,3 2 2 6 4,6 7 7 3 5
93,11,11,prac,50,1,79,97,1,4.98213109999961,1.9892204999996466,8.85265040000013,0.875,0.8,5,1,1.6,1 1 1 1 1,1 1 1 0 1,0 0 0 1 0
93,12,12,prac,61,1,62,77,1,7.85527199999979,1.564374200000202,5.918697600001,0.625,0.6,5,0,2,1 1 1 1 1,1 0 1 0 1,0 1 0 1 0
93,13,13,prac,38,1,54,53,3,4.70606700000008,5.15609459999996,3.9354857999997,0.625,0.6,5,0,1.8,1 1 1 1 1,0 1 1 0 1,1 0 0 1 0
93,14,14,prac,38,2,23,20,3,4.32145289999971,1.8241976000008435,3.18896200000017,0.375,0.4,5,0,1.9,1 1 1 1 1,1 0 0 0 1,0 1 1 1 0
93,15,15,prac,72,2,58,55,2,4.52643389999957,1.7991339999989577,3.88556289999906,0.625,0.6222222222222222,45,0,1.6,9 9 9 9 9,5 4 6 6 7,4 5 3 3 2
95,1,1,prac,87,3,84,72,3,8.30192687999988,1.6063259400002607,10.6117093799999,0.875,0.8666666666666667,45,0,1.7,9 9 9 9 9,8 7 6 9 9,1 2 3 0 0
95,2,2,prac,43,2,35,25,3,6.74925597999936,2.914223640000273,5.95649207999941,0.375,0.37777777777777777,45,0,1.8,9 9 9 9 9,4 2 3 4 4,5 7 6 5 5
95,3,3,prac,64,2,64,46,2,19.5568563800007,2.1826482399997076,9.82467367999971,0.625,0.6,5,0,1.7,1 1 1 1 1,1 0 1 0 1,0 1 0 1 0
95,4,4,prac,80,1,90,96,2,10.7223942800001,2.1489720399999896,5.65829897999993,0.875,0.8,5,0,1.9,1 1 1 1 1,1 1 0 1 1,0 0 1 0 0
95,5,5,prac,20,1,13,5,2,7.49689727999976,3.066747039999427,9.6725747800001,0.125,0.2,5,0,1.9,1 1 1 1 1,0 1 0 0 0,1 0 1 1 1
95,6,6,prac,60,1,75,78,3,16.37563168,3.347327039999527,10.0058023799997,0.625,0.6,5,0,1.7,1 1 1 1 1,0 0 1 1 1,1 1 0 0 0
95,7,7,prac,57,3,60,72,1,4.36602788000027,2.1377448399998684,6.16266147999931,0.625,0.6222222222222222,45,0,1.7,9 9 9 9 9,9 4 7 4 4,0 5 2 5 5
