sID,trial_number,trial_number_run,run,estimate1,estimate2,estimate_peer,confidence_peer,estimate1_rt,estimate2_rt,true_ratio,seen_ratio,nTotal,filler_trial,ITI,nMushrooms,nBlue,nRed,s,strategy,confidence_rating,alpha_5,alpha_45,theta_IC,theta_slope,staybias,perceived_blue,perceived_red,other_blue,other_red,stayBias_modulated,KLd
3,1,1,1,80,75,63,2,6.957925550001164,5.47371799999746,0.75,0.7555555555555555,45,0,4.4,9 9 9 9 9,7 4 8 9 6,2 5 1 0 3,0.29411764705882354,compromise,2.4285714285714284,22.6259633608511,5.5302041388725804,34.1422030266255,130.624057998038,0.01,199.08734899941288,49.77183724985321,103.80274444553802,60.9635165791255,1e-4,3.0956810223236033
3,2,2,1,12,25,29,3,6.070109849999426,6.07616434999727,0.125,0.2,5,0,4.9,1 1 1 1 1,0 0 0 1 0,1 1 1 0 1,0.7647058823529411,compromise,1.25,22.6259633608511,5.5302041388725804,34.1422030266255,130.624057998038,0.01,13.57557801651066,99.55423878774484,85.66319251658344,209.72712650611808,1.0000000000000002e-6,5.455015095736947
3,3,3,1,40,30,22,3,6.178626750001058,5.00722549999773,0.375,0.4,5,0,5.2,1 1 1 1 1,1 0 0 0 1,0 1 1 1 0,0.5555555555555556,compromise,1.25,22.6259633608511,5.5302041388725804,34.1422030266255,130.624057998038,0.01,45.2519267217022,67.8778900825533,64.98587018499434,230.4044488377072,1.0000000000000002e-6,4.818923682355094
3,4,4,1,5,10,23,2,2.5116342500004976,2.35367739999674,0.125,0.13333333333333333,45,0,5.3,9 9 9 9 9,4 0 0 1 1,5 9 9 8 8,0.2777777777777778,compromise,2.4285714285714284,22.6259633608511,5.5302041388725804,34.1422030266255,130.624057998038,0.01,12.442959312463305,236.41622693680281,37.89624003567261,126.87002098899092,1e-4,7.289555230110065
3,5,5,1,10,15,25,2,4.307809850000922,2.90853574999892,0.125,0.2,5,0,5,1 1 1 1 1,0 0 0 1 0,1 1 1 0 1,0.3333333333333333,compromise,1.25,22.6259633608511,5.5302041388725804,34.1422030266255,130.624057998038,0.01,11.31298168042555,101.81683512382995,41.19156525616588,123.57469576849763,1e-4,3.357798725330827
3,6,6,1,85,82,70,1,7.482805749999898,4.59246679999887,0.75,0.8,5,0,5.8,1 1 1 1 1,0 1 1 1 1,1 0 0 0 0,0.2,compromise,1.25,22.6259633608511,5.5302041388725804,34.1422030266255,130.624057998038,0.01,96.16034428361716,16.969472520638327,23.89954211863785,10.242660907987652,0.01,0.4673378022419111
3,7,7,1,45,44,30,1,5.369987550000587,3.41889304999859,0.375,0.37777777777777777,45,0,5.2,9 9 9 9 9,1 5 3 7 1,8 4 6 2 8,0.06666666666666667,compromise,2.4285714285714284,22.6259633608511,5.5302041388725804,34.1422030266255,130.624057998038,0.01,111.98663381216976,136.87255243709637,10.24266090798765,23.89954211863785,0.01,0.169393905750081
3,8,8,1,15,10,1,1,3.8160925499996665,6.12523849999889,0.125,0.2,5,0,5.8,1 1 1 1 1,0 0 1 0 0,1 1 0 1 1,0.35714285714285715,compromise,1.25,22.6259633608511,5.5302041388725804,34.1422030266255,130.624057998038,0.01,16.969472520638323,96.16034428361716,0.341422030266255,33.800780996359244,0.01,0.5609326283832309
3,9,9,1,0,0,1,3,4.880070049997812,3.43833909999739,0,0,45,1,5.3,9 9 9 9 9,0 0 0 0 0,9 9 9 9 9,0,stay,2.4285714285714284,22.6259633608511,5.5302041388725804,34.1422030266255,130.624057998038,0.01,0,248.85918624926612,2.9539031902270154,292.4364158324745,1.0000000000000002e-6,2.5252627086345005
3,10,10,1,50,25,3,2,3.5831457500007677,7.36147489999894,0.5,0.4888888888888889,45,1,4.8,9 9 9 9 9,3 6 4 3 6,6 3 5 6 3,0.5319148936170213,compromise,2.4285714285714284,22.6259633608511,5.5302041388725804,34.1422030266255,130.624057998038,0.01,124.42959312463306,124.42959312463306,4.942987830739906,159.8232731939236,1e-4,18.828969490955537
3,11,11,1,20,24,75,1,6.011816649997854,2.76711409999916,0.25,0.24444444444444444,45,1,5.1,9 9 9 9 9,2 3 4 0 2,7 6 5 9 7,0.07272727272727272,compromise,2.4285714285714284,22.6259633608511,5.5302041388725804,34.1422030266255,130.624057998038,0.01,49.77183724985322,199.08734899941288,25.606652269969125,8.535550756656376,0.01,2.9518025763270055
3,12,12,1,10,12,25,1,2.6049555499994312,2.04249554999842,0.25,0.24444444444444444,45,0,4.1,9 9 9 9 9,3 3 2 2 1,6 6 7 7 8,0.13333333333333333,compromise,2.4285714285714284,22.6259633608511,5.5302041388725804,34.1422030266255,130.624057998038,0.01,24.88591862492661,223.9732676243395,8.535550756656376,25.606652269969125,0.01,0.39951191345981435
3,13,13,1,25,33,40,2,5.788340650000464,6.79407399999764,0.375,0.4,5,0,4.5,1 1 1 1 1,0 0 1 1 0,1 1 0 0 1,0.5333333333333333,compromise,1.25,22.6259633608511,5.5302041388725804,34.1422030266255,130.624057998038,0.01,28.282454201063874,84.84736260319163,65.9065044098654,98.85975661479812,1e-4,2.190120569806182
3,14,14,1,90,80,72,2,6.755124549999891,6.66978849999941,0.75,0.8,5,0,5.5,1 1 1 1 1,0 1 1 1 1,1 0 0 0 0,0.5555555555555556,compromise,1.25,22.6259633608511,5.5302041388725804,34.1422030266255,130.624057998038,0.01,101.81683512382995,11.312981680425548,118.63170793775772,46.13455308690579,1e-4,4.568218068104955
3,15,15,1,85,76,69,3,9.817394150000837,6.22762509999848,0.75,0.7555555555555555,45,0,4.7,9 9 9 9 9,7 7 6 6 8,2 2 3 3 1,0.5625,compromise,2.4285714285714284,22.6259633608511,5.5302041388725804,34.1422030266255,130.624057998038,0.01,211.5303083118762,37.328877937389926,203.81932012566404,91.5709988970375,1.0000000000000002e-6,5.7495012637663985
3,16,16,1,80,80,62,1,4.905042149999645,2.57435239999904,0.75,0.7555555555555555,45,0,5.5,9 9 9 9 9,6 6 7 8 7,3 3 2 1 2,-0,stay,2.4285714285714284,22.6259633608511,5.5302041388725804,34.1422030266255,130.624057998038,0.01,199.08734899941288,49.77183724985321,21.16816587650781,12.974037150117692,0.01,0.34543585999142756
3,17,17,1,5,50,92,3,1.974273349998839,4.05009279999831,0.125,0.13333333333333333,45,1,5.6,9 9 9 9 9,3 2 0 0 1,6 7 9 9 8,0.5172413793103449,compromise,2.4285714285714284,22.6259633608511,5.5302041388725804,34.1422030266255,130.624057998038,0.01,12.442959312463305,236.41622693680281,271.7590935008854,23.63122552181611,1.0000000000000002e-6,132.56198313168485
3,18,18,1,38,25,21,3,5.490848749999714,4.82787109999845,0.375,0.37777777777777777,45,0,5.6,9 9 9 9 9,2 3 5 4 3,7 6 4 5 6,0.7647058823529411,compromise,2.4285714285714284,22.6259633608511,5.5302041388725804,34.1422030266255,130.624057998038,0.01,94.56649077472113,154.29269547454498,62.031966994767316,233.35835202793422,1.0000000000000002e-6,5.041982577273852
3,19,19,1,13,13,31,1,3.807475550000163,2.6750706999992,0.25,0.24444444444444444,45,0,6,9 9 9 9 9,4 0 2 3 2,5 9 7 6 7,0,stay,2.4285714285714284,22.6259633608511,5.5302041388725804,34.1422030266255,130.624057998038,0.01,32.351694212404595,216.50749203686152,10.584082938253905,23.558120088371595,0.01,0.4663877816221501
3,20,20,1,73,70,57,1,3.9325960500009383,3.37698354999884,0.625,0.6222222222222222,45,0,5.1,9 9 9 9 9,4 7 7 5 5,5 2 2 4 4,0.1875,compromise,2.4285714285714284,22.6259633608511,5.5302041388725804,34.1422030266255,130.624057998038,0.01,181.66720596196427,67.19198028730186,19.461055725176536,14.681147301448968,0.01,0.22880712731982536
3,21,21,1,15,17,30,1,5.882598850001159,1.7201920999978,0.25,0.2,5,0,5.1,1 1 1 1 1,0 0 0 0 1,1 1 1 1 0,0.13333333333333333,compromise,1.25,22.6259633608511,5.5302041388725804,34.1422030266255,130.624057998038,0.01,16.969472520638323,96.16034428361716,10.24266090798765,23.89954211863785,0.01,0.4673378022419112
3,22,22,1,15,25,33,3,5.121673650000957,5.21066210000026,0.25,0.2,5,0,5.1,1 1 1 1 1,0 0 1 0 0,1 1 0 1 1,0.5555555555555556,compromise,1.25,22.6259633608511,5.5302041388725804,34.1422030266255,130.624057998038,0.01,16.969472520638323,96.16034428361716,97.47880527749152,197.91151374521002,1.0000000000000002e-6,5.4702939961176575
3,23,23,1,15,3,1,3,4.541062549998969,3.78669059999811,0.125,0.2,5,0,4.4,1 1 1 1 1,0 1 0 0 0,1 0 1 1 1,0.8571428571428571,compromise,1.25,22.6259633608511,5.5302041388725804,34.1422030266255,130.624057998038,0.01,16.969472520638323,96.16034428361716,2.9539031902270154,292.4364158324745,1.0000000000000002e-6,8.754625540823854
3,24,24,1,14,24,30,3,2.746177150000221,3.78384149999692,0.25,0.24444444444444444,45,0,4.1,9 9 9 9 9,1 2 4 3 1,8 7 5 6 8,0.625,compromise,2.4285714285714284,22.6259633608511,5.5302041388725804,34.1422030266255,130.624057998038,0.01,34.840286074897264,214.01890017436887,88.61709570681046,206.77322331589107,1.0000000000000002e-6,5.961189364645246
3,25,25,1,97,98,96,3,5.149455650000164,4.4070294999965,1,1,5,1,4,1 1 1 1 1,1 1 1 1 1,0 0 0 0 0,-1,stay,1.25,22.6259633608511,5.5302041388725804,34.1422030266255,130.624057998038,0.01,109.73592230012783,3.393894504127668,283.57470626179344,11.815612760908072,1.0000000000000002e-6,0.3018550336881024
3,26,1,2,24,37,40,3,8.749349630001234,1.68306533000214,0.375,0.4,5,0,5.3,1 1 1 1 1,1 0 0 0 1,0 1 1 1 0,0.8125,compromise,1.25,22.6259633608511,5.5302041388725804,34.1422030266255,130.624057998038,0.01,27.15115603302132,85.97866077123417,118.15612760908061,177.23419141362092,1.0000000000000002e-6,3.7006546269889835
3,27,2,2,56,68,74,3,5.482662830003392,5.07732464000037,0.625,0.6222222222222222,45,0,4.2,9 9 9 9 9,3 7 5 5 8,6 2 4 4 1,0.6666666666666666,compromise,2.4285714285714284,22.6259633608511,5.5302041388725804,34.1422030266255,130.624057998038,0.01,139.36114429958906,109.49804194967707,218.58883607679914,76.801482945902407,1.0000000000000002e-6,5.21481949104171
3,28,3,2,44,35,28,3,4.988161630000832,4.04792244000055,0.375,0.37777777777777777,45,0,4.1,9 9 9 9 9,5 3 2 3 4,4 6 7 6 5,0.5625,compromise,2.4285714285714284,22.6259633608511,5.5302041388725804,34.1422030266255,130.624057998038,0.01,109.4980419496771,139.36114429958906,82.70928932635644,212.6810296963451,1.0000000000000002e-6,4.1141808539244415
3,29,4,2,67,67,65,1,7.769042930000069,3.0287465399997,0.625,0.6,5,1,4.6,1 1 1 1 1,0 1 1 1 0,1 0 0 0 1,-0,stay,1.25,22.6259633608511,5.5302041388725804,34.1422030266255,130.624057998038,0.01,75.79697725885119,37.33283954540431,22.19243196730658,11.949771059318925,0.01,0.020250848061224114
3,30,5,2,50,45,33,2,3.4156089300013264,3.89016984000045,0.375,0.37777777777777777,45,0,4.1,9 9 9 9 9,2 4 3 4 4,7 5 6 5 5,0.29411764705882354,compromise,2.4285714285714284,22.6259633608511,5.5302041388725804,34.1422030266255,130.624057998038,0.01,124.42959312463306,124.42959312463306,54.37286613813897,110.39339488652455,1e-4,2.3560556140270483
3,31,6,2,10,15,25,2,4.075780929999382,6.48667514000044,0.25,0.24444444444444444,45,0,5.7,9 9 9 9 9,1 2 3 4 1,8 7 6 5 8,0.3333333333333333,compromise,2.4285714285714284,22.6259633608511,5.5302041388725804,34.1422030266255,130.624057998038,0.01,24.88591862492661,223.9732676243395,41.19156525616588,123.57469576849763,1e-4,3.6753440104081707
3,32,7,2,81,72,64,2,7.56326953000098,2.57303174000299,0.75,0.8,5,0,4.5,1 1 1 1 1,1 1 0 1 1,0 0 1 0 0,0.5294117647058824,compromise,1.25,22.6259633608511,5.5302041388725804,34.1422030266255,130.624057998038,0.01,91.63515161144697,21.494665192808537,105.45040705578465,59.31585396887886,1e-4,3.0764786643428543
3,33,8,2,11,19,26,3,1.9965021300013177,2.03593426999942,0.25,0.24444444444444444,45,0,5.2,9 9 9 9 9,1 4 0 4 2,8 5 9 5 7,0.5333333333333333,compromise,2.4285714285714284,22.6259633608511,5.5302041388725804,34.1422030266255,130.624057998038,0.01,27.374510487419276,221.48467576184683,76.801482945902407,218.58883607679914,1.0000000000000002e-6,6.049000134072908
3,34,9,2,6,13,23,2,2.1947405299997627,4.1312565699991,0.125,0.13333333333333333,45,0,5.6,9 9 9 9 9,2 0 0 2 2,7 9 9 7 7,0.4117647058823529,compromise,2.4285714285714284,22.6259633608511,5.5302041388725804,34.1422030266255,130.624057998038,0.01,14.931551174955965,233.92763507431013,37.89624003567261,126.87002098899092,1e-4,6.062621042044504
3,35,10,2,14,8,1,2,5.865707730001304,2.53710814000078,0.125,0.2,5,0,4.7,1 1 1 1 1,0 0 1 0 0,1 1 0 1 1,0.4615384615384616,compromise,1.25,22.6259633608511,5.5302041388725804,34.1422030266255,130.624057998038,0.01,15.83817435259577,97.29164245165973,1.6476626102466352,163.11859841441688,1e-4,4.589851137165967
3,36,11,2,40,40,40,2,8.413206930001252,4.61910914000146,0.375,0.4,5,1,5.7,1 1 1 1 1,1 0 0 0 1,0 1 1 1 0,NA,NA,1.25,22.6259633608511,5.5302041388725804,34.1422030266255,130.624057998038,0.01,45.2519267217022,67.8778900825533,65.9065044098654,98.85975661479812,1e-4,0.15063992619383926
3,37,12,2,67,80,83,3,3.257304730001124,3.55163554000137,0.75,0.7555555555555555,45,0,5.5,9 9 9 9 9,6 5 6 9 8,3 4 3 0 1,0.8125,compromise,2.4285714285714284,22.6259633608511,5.5302041388725804,34.1422030266255,130.624057998038,0.01,166.73565478700831,82.1235314622578,245.17396478884226,50.21635423385927,1.0000000000000002e-6,4.912767048385837
3,38,13,2,5,10,20,3,1.5699565300001268,1.33120914000028,0.125,0.13333333333333333,45,0,4.7,9 9 9 9 9,0 3 1 1 1,9 6 8 8 8,0.3333333333333333,compromise,2.4285714285714284,22.6259633608511,5.5302041388725804,34.1422030266255,130.624057998038,0.01,12.442959312463305,236.41622693680281,59.07806380454031,236.31225521816123,1.0000000000000002e-6,8.962592062151543
3,39,14,2,12,50,88,3,3.159204530000352,4.76077054000052,0.125,0.2,5,1,5.5,1 1 1 1 1,0 0 0 1 0,1 1 1 0 1,0.5,compromise,1.25,22.6259633608511,5.5302041388725804,34.1422030266255,130.624057998038,0.01,13.57557801651066,99.55423878774484,259.94348073997736,35.44683828272418,1.0000000000000002e-6,73.9628781677788
3,40,15,2,12,15,28,2,2.252933629999461,2.05493693999961,0.25,0.24444444444444444,45,0,5.2,9 9 9 9 9,1 4 2 3 1,8 5 7 6 8,0.1875,compromise,2.4285714285714284,22.6259633608511,5.5302041388725804,34.1422030266255,130.624057998038,0.01,29.86310234991193,218.9960838993542,46.13455308690579,118.63170793775772,1e-4,3.703736534726504
3,41,16,2,5,6,20,1,2.0201824300002045,2.90020874000038,0.125,0.13333333333333333,45,0,4.1,9 9 9 9 9,2 3 1 0 0,7 6 8 9 9,0.06666666666666667,compromise,2.4285714285714284,22.6259633608511,5.5302041388725804,34.1422030266255,130.624057998038,0.01,12.442959312463305,236.41622693680281,6.828440605325101,27.313762421300403,0.01,0.6714701266391757
3,42,17,2,31,34,47,1,2.415765530000499,2.74087434000103,0.375,0.37777777777777777,45,0,4,9 9 9 9 9,5 1 2 5 4,4 8 7 4 5,0.1875,compromise,2.4285714285714284,22.6259633608511,5.5302041388725804,34.1422030266255,130.624057998038,0.01,77.14634773727249,171.7128385119936,16.046835422513986,18.095367604111516,0.01,0.21313466922323263
3,43,18,2,55,55,55,1,6.466001029999461,3.14370143999986,0.625,0.6222222222222222,45,1,4.3,9 9 9 9 9,7 7 5 4 5,2 2 4 5 4,NA,NA,2.4285714285714284,22.6259633608511,5.5302041388725804,34.1422030266255,130.624057998038,0.01,136.87255243709637,111.98663381216973,18.77821166464403,15.363991361981475,0.01,0.003917331057762399
3,44,19,2,10,12,27,1,3.452877030000309,3.45714453999972,0.125,0.13333333333333333,45,0,5.2,9 9 9 9 9,1 2 2 1 0,8 7 7 8 9,0.1176470588235294,compromise,2.4285714285714284,22.6259633608511,5.5302041388725804,34.1422030266255,130.624057998038,0.01,24.88591862492661,223.9732676243395,9.218394817188885,24.923808209436615,0.01,0.5073160667748183
3,45,20,2,20,17,5,1,6.620076830000471,2.65477663999991,0.125,0.2,5,0,4.3,1 1 1 1 1,0 0 0 1 0,1 1 1 0 1,0.2,compromise,1.25,22.6259633608511,5.5302041388725804,34.1422030266255,130.624057998038,0.01,22.6259633608511,90.5038534434044,1.7071101513312752,32.435092875294224,0.01,0.49569321703692587
3,46,21,2,29,40,47,2,7.871502930000133,2.73983774000044,0.375,0.4,5,0,5.5,1 1 1 1 1,0 0 1 1 0,1 1 0 0 1,0.6111111111111112,compromise,1.25,22.6259633608511,5.5302041388725804,34.1422030266255,130.624057998038,0.01,32.80764687323409,80.32216993102139,77.44014268159185,87.32611834307167,1e-4,2.8976536000427173
3,47,22,2,55,58,71,1,3.383854830000928,3.25194493999879,0.625,0.6222222222222222,45,0,4.8,9 9 9 9 9,6 5 5 5 7,3 4 4 4 2,0.1875,compromise,2.4285714285714284,22.6259633608511,5.5302041388725804,34.1422030266255,130.624057998038,0.01,136.87255243709637,111.98663381216973,24.240964148904105,9.901238877721397,0.01,0.1922398790125651
3,48,23,2,80,69,65,3,4.394700130000274,3.82628044000012,0.75,0.8,5,0,5.8,1 1 1 1 1,0 1 1 1 1,1 0 0 0 0,0.7333333333333333,compromise,1.25,22.6259633608511,5.5302041388725804,34.1422030266255,130.624057998038,0.01,90.5038534434044,22.625963360851095,192.003707364756,103.38661165794554,1.0000000000000002e-6,3.5439481642631594
3,49,24,2,65,56,50,3,6.207664430001387,3.74938664000001,0.625,0.6,5,0,4.4,1 1 1 1 1,0 1 1 0 1,1 0 0 1 0,0.6,compromise,1.25,22.6259633608511,5.5302041388725804,34.1422030266255,130.624057998038,0.01,73.53438092276608,39.59543588148942,147.69515951135077,147.69515951135077,1.0000000000000002e-6,2.9744048915734504
3,50,25,2,35,36,50,1,6.549174730002051,5.80688394000208,0.375,0.4,5,0,4.1,1 1 1 1 1,1 1 0 0 0,0 0 1 1 1,0.06666666666666667,compromise,1.25,22.6259633608511,5.5302041388725804,34.1422030266255,130.624057998038,0.01,39.59543588148942,73.53438092276608,17.07110151331275,17.07110151331275,0.01,0.3013409155967179
3,51,1,3,55,62,70,3,4.874350450001657,4.66351144999862,0.625,0.6222222222222222,45,0,5.4,9 9 9 9 9,6 6 5 3 8,3 3 4 6 1,0.4666666666666667,compromise,2.4285714285714284,22.6259633608511,5.5302041388725804,34.1422030266255,130.624057998038,0.01,136.87255243709637,111.98663381216973,206.77322331589107,88.61709570681047,1.0000000000000002e-6,3.5837659577924024
3,52,2,3,60,62,75,1,4.45338824999817,2.73921189999783,0.625,0.6,5,0,4.5,1 1 1 1 1,1 1 0 1 0,0 0 1 0 1,0.13333333333333333,compromise,1.25,22.6259633608511,5.5302041388725804,34.1422030266255,130.624057998038,0.01,67.8778900825533,45.2519267217022,25.606652269969125,8.535550756656376,0.01,0.30875643674607794
3,53,3,3,20,20,21,1,6.657709049999539,2.15171349999946,0.25,0.2,5,1,4.2,1 1 1 1 1,0 1 0 0 0,1 0 1 1 1,0,stay,1.25,22.6259633608511,5.5302041388725804,34.1422030266255,130.624057998038,0.01,22.6259633608511,90.5038534434044,7.169862635591355,26.972340391034148,0.01,0.016572210253574103
3,54,4,3,20,30,35,2,4.266032450001148,2.92626340000061,0.25,0.2,5,0,4.6,1 1 1 1 1,1 0 0 0 0,0 1 1 1 1,0.6666666666666666,compromise,1.25,22.6259633608511,5.5302041388725804,34.1422030266255,130.624057998038,0.01,22.6259633608511,90.5038534434044,57.66819135863223,107.0980696660313,1e-4,2.405899319137544
3,55,5,3,85,85,67,1,2.899249449999843,3.45977225000024,0.75,0.7555555555555555,45,0,4.7,9 9 9 9 9,8 8 7 6 5,1 1 2 3 4,-0,stay,2.4285714285714284,22.6259633608511,5.5302041388725804,34.1422030266255,130.624057998038,0.01,211.5303083118762,37.328877937389926,22.87527602783909,11.266926998786415,0.01,0.4207726707121423
3,56,6,3,20,28,35,1,4.037117949999811,3.09069634999651,0.25,0.2,5,0,5.5,1 1 1 1 1,0 0 1 0 0,1 1 0 1 1,0.5333333333333333,compromise,1.25,22.6259633608511,5.5302041388725804,34.1422030266255,130.624057998038,0.01,22.6259633608511,90.5038534434044,11.949771059318925,22.19243196730658,0.01,0.3924000247245353
3,57,7,3,60,70,75,2,2.9159370500001387,3.22517259999768,0.625,0.6,5,0,4.6,1 1 1 1 1,1 0 0 1 1,0 1 1 0 0,0.6666666666666666,compromise,1.25,22.6259633608511,5.5302041388725804,34.1422030266255,130.624057998038,0.01,67.8778900825533,45.2519267217022,123.57469576849763,41.19156525616588,1e-4,2.1725097644212426
3,58,8,3,80,49,24,2,2.7866057499995804,8.54021429999921,0.75,0.8,5,1,4.6,1 1 1 1 1,1 0 1 1 1,0 1 0 0 0,0.5535714285714286,compromise,1.25,22.6259633608511,5.5302041388725804,34.1422030266255,130.624057998038,0.01,90.5038534434044,22.625963360851095,39.543902645919246,125.22235837874427,1e-4,26.305418589643562
3,59,9,3,78,75,60,2,3.4334241499982454,4.06826570000158,0.75,0.7555555555555555,45,0,5.2,9 9 9 9 9,8 7 6 8 5,1 2 3 1 4,0.16666666666666666,compromise,2.4285714285714284,22.6259633608511,5.5302041388725804,34.1422030266255,130.624057998038,0.01,194.11016527442757,54.74902097483854,98.85975661479812,65.9065044098654,1e-4,3.2782328597208115
3,60,10,3,60,74,75,3,4.307730350001293,2.93290529999831,0.625,0.6,5,0,4.5,1 1 1 1 1,0 0 1 1 1,1 1 0 0 0,0.9333333333333332,compromise,1.25,22.6259633608511,5.5302041388725804,34.1422030266255,130.624057998038,0.01,67.8778900825533,45.2519267217022,221.54273926702615,73.84757975567538,1.0000000000000002e-6,3.355485139312414
3,61,11,3,20,33,35,3,3.470016049999685,4.63597300000038,0.25,0.2,5,0,4.6,1 1 1 1 1,0 0 1 0 0,1 1 0 1 1,0.8666666666666667,compromise,1.25,22.6259633608511,5.5302041388725804,34.1422030266255,130.624057998038,0.01,22.6259633608511,90.5038534434044,103.38661165794554,192.003707364756,1.0000000000000002e-6,3.543948164263161
3,62,12,3,47,46,45,2,3.709222649998992,4.99150419999751,0.375,0.37777777777777777,45,1,5.7,9 9 9 9 9,2 4 3 2 6,7 5 6 7 3,0.5,compromise,2.4285714285714284,22.6259633608511,5.5302041388725804,34.1422030266255,130.624057998038,0.01,116.96381753715507,131.89536871211106,74.14481746109858,90.62144356356494,1e-4,0.08649350922264339
3,63,13,3,60,68,77,1,3.224060649998137,3.92548349999743,0.625,0.6,5,0,5,1 1 1 1 1,0 0 1 1 1,1 1 0 0 0,0.4705882352941176,compromise,1.25,22.6259633608511,5.5302041388725804,34.1422030266255,130.624057998038,0.01,67.8778900825533,45.2519267217022,26.28949633050164,7.852706696123865,0.01,0.3928858848305494
3,64,14,3,60,70,76,2,2.132515949999288,3.5447824999992,0.625,0.6,5,0,5.6,1 1 1 1 1,0 0 1 1 1,1 1 0 0 0,0.625,compromise,1.25,22.6259633608511,5.5302041388725804,34.1422030266255,130.624057998038,0.01,67.8778900825533,45.2519267217022,125.22235837874427,39.543902645919246,1e-4,2.4634496208978787
3,65,15,3,100,100,99,3,1.74668544999804,1.86431399999856,1,1,45,1,5.8,9 9 9 9 9,9 9 9 9 9,0 0 0 0 0,-0,stay,2.4285714285714284,22.6259633608511,5.5302041388725804,34.1422030266255,130.624057998038,0.01,248.85918624926612,0,292.4364158324745,2.953903190227018,1.0000000000000002e-6,2.525262708634502
3,66,16,3,80,70,65,3,4.686115749998862,4.13939949999985,0.75,0.8,5,0,5.2,1 1 1 1 1,1 1 0 1 1,0 0 1 0 0,0.6666666666666666,compromise,1.25,22.6259633608511,5.5302041388725804,34.1422030266255,130.624057998038,0.01,90.5038534434044,22.625963360851095,192.003707364756,103.38661165794554,1.0000000000000002e-6,3.5439481642631594
3,67,17,3,20,30,35,2,3.01592824999716,3.11143314999936,0.25,0.2,5,0,5.3,1 1 1 1 1,0 0 1 0 0,1 1 0 1 1,0.6666666666666666,compromise,1.25,22.6259633608511,5.5302041388725804,34.1422030266255,130.624057998038,0.01,22.6259633608511,90.5038534434044,57.66819135863223,107.0980696660313,1e-4,2.405899319137544
3,68,18,3,58,64,75,2,3.8778487500003394,2.14334819999749,0.625,0.6222222222222222,45,0,5.2,9 9 9 9 9,6 4 4 8 6,3 5 5 1 3,0.35294117647058826,compromise,2.4285714285714284,22.6259633608511,5.5302041388725804,34.1422030266255,130.624057998038,0.01,144.33832802457434,104.52085822469178,123.57469576849763,41.19156525616588,1e-4,2.498999049055961
3,69,19,3,16,6,1,3,2.303430549998666,3.41977340000085,0.125,0.13333333333333333,45,0,4.2,9 9 9 9 9,2 2 1 1 0,7 7 8 8 9,0.6666666666666666,compromise,2.4285714285714284,22.6259633608511,5.5302041388725804,34.1422030266255,130.624057998038,0.01,39.81746979988258,209.04171644938353,2.9539031902270154,292.4364158324745,1.0000000000000002e-6,9.182329945366204
3,70,20,3,3,1,1,3,1.5116613500013043,1.59185719999914,0,0,5,1,5.2,1 1 1 1 1,0 0 0 0 0,1 1 1 1 1,1,copy,1.25,22.6259633608511,5.5302041388725804,34.1422030266255,130.624057998038,0.01,3.393894504127665,109.73592230012783,2.9539031902270154,292.4364158324745,1.0000000000000002e-6,1.0863079339916157
3,71,21,3,40,29,22,1,8.74456905000261,3.30999579999843,0.375,0.4,5,0,4.5,1 1 1 1 1,1 0 0 0 1,0 1 1 1 0,0.6111111111111112,compromise,1.25,22.6259633608511,5.5302041388725804,34.1422030266255,130.624057998038,0.01,45.2519267217022,67.8778900825533,7.511284665857611,26.630918360767893,0.01,0.43906029969797167
3,72,22,3,56,69,72,2,2.7658958500014705,4.13823874999798,0.625,0.6222222222222222,45,0,5.2,9 9 9 9 9,3 5 7 7 6,6 4 2 2 3,0.8125,compromise,2.4285714285714284,22.6259633608511,5.5302041388725804,34.1422030266255,130.624057998038,0.01,139.36114429958906,109.49804194967707,118.63170793775772,46.13455308690579,1e-4,2.171323164203094
3,73,23,3,80,73,65,1,3.999277249999068,3.0463751999996,0.75,0.8,5,0,4.3,1 1 1 1 1,1 1 0 1 1,0 0 1 0 0,0.4666666666666667,compromise,1.25,22.6259633608511,5.5302041388725804,34.1422030266255,130.624057998038,0.01,90.5038534434044,22.625963360851095,22.19243196730658,11.949771059318925,0.01,0.3924000247245376
3,74,24,3,60,53,45,2,9.314742450002086,4.30395049999788,0.375,0.37777777777777777,45,0,5.8,9 9 9 9 9,4 4 3 4 2,5 5 6 5 7,0.4666666666666667,compromise,2.4285714285714284,22.6259633608511,5.5302041388725804,34.1422030266255,130.624057998038,0.01,149.31551174955968,99.54367449970644,74.14481746109858,90.62144356356494,1e-4,1.8477553886471632
3,75,25,3,75,52,25,2,4.375782049997724,5.90360369999871,0.75,0.7555555555555555,45,1,4.7,9 9 9 9 9,5 6 9 7 7,4 3 0 2 2,0.46,compromise,2.4285714285714284,22.6259633608511,5.5302041388725804,34.1422030266255,130.624057998038,0.01,186.64438968694958,62.21479656231653,41.19156525616588,123.57469576849763,1e-4,21.09446274737983
6,1,1,1,20,22,35,3,10.350496589999238,6.52135318999717,0.25,0.24444444444444444,45,0,4.5,9 9 9 9 9,1 4 3 2 1,8 5 6 7 8,0.13333333333333333,compromise,2.4285714285714284,45.6485661607913,13.8807641605208,32.2583009374567,73.4782179739155,0.288929756451991,124.9268774446872,499.7075097787488,62.7251579098507,116.48957897543703,0.02411997284344691,2.019841734781059
6,2,2,1,14,14,31,2,7.150399489997653,4.16816375000417,0.25,0.24444444444444444,45,0,5.6,9 9 9 9 9,2 3 3 1 2,7 6 6 8 7,0,stay,2.4285714285714284,45.6485661607913,13.8807641605208,32.2583009374567,73.4782179739155,0.288929756451991,87.44881421128105,537.185573012155,32.77832086252538,72.95819804884681,0.08348040416340682,1.4261683621110537
6,3,3,1,10,15,25,3,5.920350790001976,6.34860141999525,0.125,0.2,5,0,4.9,1 1 1 1 1,0 0 0 0 1,1 1 1 1 0,0.3333333333333333,compromise,1,45.6485661607913,13.8807641605208,32.2583009374567,73.4782179739155,0.288929756451991,22.82428308039565,205.41854772356083,44.80368422132193,134.4110526639658,0.02411997284344691,4.019045132363066
6,4,4,1,91,89,75,3,5.3780279899983725,6.00182321999819,0.75,0.7555555555555555,45,0,4.8,9 9 9 9 9,7 8 7 4 8,2 1 2 5 1,0.125,compromise,2.4285714285714284,45.6485661607913,13.8807641605208,32.2583009374567,73.4782179739155,0.288929756451991,568.4172923733267,56.21709485010922,134.4110526639658,44.80368422132193,0.02411997284344691,3.9237027478392403
6,5,5,1,89,89,71,1,7.482423890000064,4.38967181999396,0.75,0.8,5,0,5.2,1 1 1 1 1,1 1 0 1 1,0 0 1 0 0,-0,stay,1,45.6485661607913,13.8807641605208,32.2583009374567,73.4782179739155,0.288929756451991,203.13611941552128,25.106711388435212,22.90339366559426,9.354907271862444,0.288929756451991,0.5070633740012427
6,6,6,1,42,42,26,1,8.504958990000887,4.18731181999829,0.375,0.37777777777777777,45,0,4.2,9 9 9 9 9,4 3 3 3 4,5 6 6 6 5,-0,stay,2.4285714285714284,45.6485661607913,13.8807641605208,32.2583009374567,73.4782179739155,0.288929756451991,262.3464426338431,362.2879445895929,8.387158243738742,23.87114269371796,0.288929756451991,0.0800593323334654
6,7,7,1,37,37,21,2,5.136885289997736,6.94762022000214,0.375,0.37777777777777777,45,0,4.5,9 9 9 9 9,5 2 4 5 1,4 7 5 4 8,-0,stay,2.4285714285714284,45.6485661607913,13.8807641605208,32.2583009374567,73.4782179739155,0.288929756451991,231.11472327267128,393.5196639507647,22.204668971388163,83.53184993998404,0.08348040416340682,0.7390295879414133
6,8,8,1,88,80,70,2,4.267473489999247,4.57635472000038,0.75,0.8,5,0,4.1,1 1 1 1 1,1 1 1 1 0,0 0 0 0 1,0.4444444444444444,compromise,1,45.6485661607913,13.8807641605208,32.2583009374567,73.4782179739155,0.288929756451991,200.85369110748172,27.38913969647478,74.01556323796054,31.720955673411666,0.08348040416340682,2.762179212120703
6,9,9,1,63,63,61,1,6.661624190001021,3.68683271999907,0.625,0.6,5,1,4.8,1 1 1 1 1,1 0 1 0 1,0 1 0 1 0,-0,stay,1,45.6485661607913,13.8807641605208,32.2583009374567,73.4782179739155,0.288929756451991,143.7929834064926,84.4498473974639,19.677563571848587,12.580737365608114,0.288929756451991,0.00695046397687485
6,10,10,1,4,4,22,2,4.425782490001438,2.21532751999985,0.125,0.13333333333333333,45,0,5.9,9 9 9 9 9,2 1 0 1 2,7 8 9 8 7,0,stay,2.4285714285714284,45.6485661607913,13.8807641605208,32.2583009374567,73.4782179739155,0.288929756451991,24.98537548893744,599.6490117344985,23.262034160501884,82.47448475087032,0.08348040416340682,3.894104711475563
6,11,11,1,17,17,15,2,5.761689689999912,4.36680961999809,0.375,0.37777777777777777,45,1,4.9,9 9 9 9 9,4 4 3 2 4,5 5 6 7 5,-0,stay,2.4285714285714284,45.6485661607913,13.8807641605208,32.2583009374567,73.4782179739155,0.288929756451991,106.18784582798412,518.4465413954518,15.86047783670583,89.87604107466638,0.08348040416340682,0.0254394993988408
6,12,12,1,97,97,96,3,3.7838814900023854,4.6886767199976,1,1,5,1,4.4,1 1 1 1 1,1 1 1 1 1,0 0 0 0 0,-0,stay,1,45.6485661607913,13.8807641605208,32.2583009374567,73.4782179739155,0.288929756451991,221.39554587983778,6.847284924118701,172.0461474098762,7.168589475411515,0.02411997284344691,0.10919030092951476
6,13,13,1,3,3,4,3,3.911159290000796,1.76020031000007,0,0,5,1,4.5,1 1 1 1 1,0 0 0 0 0,1 1 1 1 1,0,stay,1,45.6485661607913,13.8807641605208,32.2583009374567,73.4782179739155,0.288929756451991,6.847284924118695,221.39554587983778,7.168589475411509,172.0461474098762,0.02411997284344691,0.1091903009295143
6,14,14,1,51,51,49,2,4.682497090005199,3.38882692000334,0.5,0.4888888888888889,45,1,4.6,9 9 9 9 9,5 5 5 3 4,4 4 4 6 5,-0,stay,2.4285714285714284,45.6485661607913,13.8807641605208,32.2583009374567,73.4782179739155,0.288929756451991,318.56353748395236,306.07084973948366,51.810894266572376,53.925624644799825,0.08348040416340682,0.016229698430797898
6,15,15,1,47,46,30,3,5.107494489999226,3.3915783199991,0.375,0.37777777777777777,45,0,4.8,9 9 9 9 9,4 2 5 3 3,5 7 4 6 6,0.05882352941176471,compromise,2.4285714285714284,45.6485661607913,13.8807641605208,32.2583009374567,73.4782179739155,0.288929756451991,293.5781619950149,331.0562252284211,53.76442106558631,125.4503158197014,0.02411997284344691,1.8312901606642293
6,16,16,1,77,71,60,3,6.394999989995995,6.30824521999602,0.625,0.6222222222222222,45,0,5.8,9 9 9 9 9,6 6 6 6 4,3 3 3 3 5,0.35294117647058826,compromise,2.4285714285714284,45.6485661607913,13.8807641605208,32.2583009374567,73.4782179739155,0.288929756451991,480.9684781620457,143.66590906139027,107.52884213117262,71.6858947541151,0.02411997284344691,2.3606585445637385
6,17,17,1,58,58,75,1,8.97753948999889,6.2385283199983,0.625,0.6222222222222222,45,0,4.7,9 9 9 9 9,6 5 7 4 6,3 4 2 5 3,0,stay,2.4285714285714284,45.6485661607913,13.8807641605208,32.2583009374567,73.4782179739155,0.288929756451991,362.2879445895928,262.34644263384314,24.193725703092525,8.064575234364176,0.288929756451991,0.09031184432011186
6,18,18,1,64,64,46,1,3.174373990001186,5.7884008200017,0.625,0.6222222222222222,45,0,4.5,9 9 9 9 9,7 4 3 6 8,2 5 6 3 1,-0,stay,2.4285714285714284,45.6485661607913,13.8807641605208,32.2583009374567,73.4782179739155,0.288929756451991,399.76600782299903,224.86837940043694,14.838818431230084,17.419482506226622,0.288929756451991,0.10536133880709965
6,19,19,1,90,82,72,3,5.245119390001491,3.57283121999717,0.75,0.8,5,0,5.1,1 1 1 1 1,0 1 1 1 1,1 0 0 0 0,0.4444444444444444,compromise,1,45.6485661607913,13.8807641605208,32.2583009374567,73.4782179739155,0.288929756451991,205.41854772356083,22.824283080395645,129.03461055740715,50.180126327880565,0.02411997284344691,5.52634957285946
6,20,20,1,6,15,24,3,2.6160058899949945,3.47334831999979,0.25,0.2,5,0,5.4,1 1 1 1 1,0 0 0 1 0,1 1 1 0 1,0.5,compromise,1,45.6485661607913,13.8807641605208,32.2583009374567,73.4782179739155,0.288929756451991,13.69456984823739,214.54826095571906,43.01153685246905,136.20320003281867,0.02411997284344691,7.184078538678816
6,21,21,1,70,64,52,3,6.220362489999388,4.15264652000405,0.625,0.6,5,0,4.1,1 1 1 1 1,0 1 0 1 1,1 0 1 0 0,0.3333333333333333,compromise,1,45.6485661607913,13.8807641605208,32.2583009374567,73.4782179739155,0.288929756451991,159.76998156276954,68.47284924118695,93.19166318034962,86.0230737049381,0.02411997284344691,3.174686245553712
6,22,22,1,6,6,21,1,4.433870790002402,1.96743300999879,0.125,0.2,5,0,5.5,1 1 1 1 1,0 1 0 0 0,1 0 1 1 1,0,stay,1,45.6485661607913,13.8807641605208,32.2583009374567,73.4782179739155,0.288929756451991,13.69456984823739,214.54826095571906,6.774243196865907,25.484057740590796,0.288929756451991,0.5631333564261362
6,23,23,1,35,41,50,2,6.332782789999328,8.04568841999571,0.375,0.4,5,0,4.4,1 1 1 1 1,1 0 1 0 0,0 1 0 1 1,0.4,compromise,1,45.6485661607913,13.8807641605208,32.2583009374567,73.4782179739155,0.288929756451991,79.88499078138477,148.3578400225717,52.8682594556861,52.8682594556861,0.08348040416340682,1.1112786657164937
6,24,24,1,5,5,20,1,4.3409576900012325,2.13479412000379,0.125,0.13333333333333333,45,0,5.5,9 9 9 9 9,1 1 0 2 2,8 8 9 7 7,0,stay,2.4285714285714284,45.6485661607913,13.8807641605208,32.2583009374567,73.4782179739155,0.288929756451991,31.2317193611718,593.4026678622641,6.451660187491341,25.806640749965364,0.288929756451991,0.32011698617833223
6,25,25,1,36,40,77,2,4.145006889997603,7.25746042000537,0.375,0.4,5,1,5.7,1 1 1 1 1,0 0 1 1 0,1 1 0 0 1,0.0975609756097561,compromise,1,45.6485661607913,13.8807641605208,32.2583009374567,73.4782179739155,0.288929756451991,82.16741908942433,146.07541171453215,81.41711956175659,24.319399349615605,0.08348040416340682,7.806801854803589
6,26,1,2,35,45,50,3,5.699372710001626,3.71902260999923,0.375,0.4,5,0,4.3,1 1 1 1 1,1 0 1 0 0,0 1 0 1 1,0.6666666666666666,compromise,1,45.6485661607913,13.8807641605208,32.2583009374567,73.4782179739155,0.288929756451991,79.88499078138477,148.3578400225717,89.60736844264386,89.60736844264386,0.02411997284344691,2.132310723371469
6,27,2,2,6,7,24,1,1.604958110001462,3.91877368000132,0.25,0.2,5,0,6,1 1 1 1 1,0 0 0 0 1,1 1 1 1 0,0.05555555555555555,compromise,1,45.6485661607913,13.8807641605208,32.2583009374567,73.4782179739155,0.288929756451991,13.69456984823739,214.54826095571906,7.741992224989608,24.516308712467094,0.288929756451991,0.7895991443369806
6,28,3,2,39,34,23,3,6.1908470099988335,4.84961008000028,0.375,0.37777777777777777,45,0,5.2,9 9 9 9 9,1 2 4 6 4,8 7 5 3 5,0.3125,compromise,2.4285714285714284,45.6485661607913,13.8807641605208,32.2583009374567,73.4782179739155,0.288929756451991,243.60741101714004,381.02697620629596,41.219389483616176,137.99534740167155,0.02411997284344691,1.7293568493764218
6,29,4,2,65,65,49,1,2.6964901100000134,4.60766148000039,0.625,0.6,5,0,5.4,1 1 1 1 1,0 1 1 1 0,1 0 0 0 1,-0,stay,1,45.6485661607913,13.8807641605208,32.2583009374567,73.4782179739155,0.288929756451991,148.3578400225717,79.88499078138477,15.806567459353785,16.45173347810292,0.288929756451991,0.19550792424777946
6,30,5,2,59,60,75,1,9.766146910002137,2.5317355799998,0.625,0.6,5,0,5.3,1 1 1 1 1,1 0 1 1 0,0 1 0 0 1,0.0625,compromise,1,45.6485661607913,13.8807641605208,32.2583009374567,73.4782179739155,0.288929756451991,134.66327017433431,93.57956062962216,24.193725703092525,8.064575234364176,0.288929756451991,0.1915613547199779
6,31,6,2,1,1,1,3,9.196731909996744,1.9557028800009,0,0,45,1,5.7,9 9 9 9 9,0 0 0 0 0,9 9 9 9 9,NA,NA,2.4285714285714284,45.6485661607913,13.8807641605208,32.2583009374567,73.4782179739155,0.288929756451991,6.24634387223436,618.3880433512015,1.7921473688528773,177.42258951643484,0.02411997284344691,0.014096805483224017
6,32,7,2,32,41,50,2,4.741169810000429,3.38880728000004,0.375,0.4,5,0,5.5,1 1 1 1 1,1 0 0 1 0,0 1 1 0 1,0.5,compromise,1,45.6485661607913,13.8807641605208,32.2583009374567,73.4782179739155,0.288929756451991,73.03770585726608,155.20512494669038,52.8682594556861,52.8682594556861,0.08348040416340682,1.6282939426751981
6,33,8,2,11,17,29,2,4.392628409997997,5.57032398000229,0.25,0.2,5,0,5.8,1 1 1 1 1,0 0 1 0 0,1 1 0 1 1,0.3333333333333333,compromise,1,45.6485661607913,13.8807641605208,32.2583009374567,73.4782179739155,0.288929756451991,25.106711388435215,203.13611941552128,30.663590484297938,75.07292842707426,0.08348040416340682,2.9117568713237736
6,34,9,2,12,13,28,1,4.157819810003275,6.53722248000122,0.125,0.2,5,0,4.4,1 1 1 1 1,0 1 0 0 0,1 0 1 1 1,0.0625,compromise,1,45.6485661607913,13.8807641605208,32.2583009374567,73.4782179739155,0.288929756451991,27.38913969647478,200.85369110748172,9.032324262487878,23.225976674968827,0.288929756451991,0.37968860544400584
6,35,10,2,91,82,74,3,7.125904510001419,3.57930028000192,0.75,0.8,5,0,5.4,1 1 1 1 1,1 1 1 1 0,0 0 0 0 1,0.5294117647058824,compromise,1,45.6485661607913,13.8807641605208,32.2583009374567,73.4782179739155,0.288929756451991,207.7009760316004,20.54185477235608,132.6189052951129,46.59583159017481,0.02411997284344691,5.298993314706923
6,36,11,2,88,88,71,1,5.453718310003751,5.46104217999891,0.75,0.7555555555555555,45,0,4.1,9 9 9 9 9,8 9 5 5 7,1 0 4 4 2,-0,stay,2.4285714285714284,45.6485661607913,13.8807641605208,32.2583009374567,73.4782179739155,0.288929756451991,549.6782607566237,74.95612646681231,22.90339366559426,9.354907271862444,0.288929756451991,0.1964251585829481
6,37,12,2,92,88,76,2,4.394254210001236,4.79647658000249,0.75,0.8,5,0,4.9,1 1 1 1 1,1 0 1 1 1,0 1 0 0 0,0.25,compromise,1,45.6485661607913,13.8807641605208,32.2583009374567,73.4782179739155,0.288929756451991,209.98340433964,18.25942646431651,80.35975437264287,25.376764538729326,0.08348040416340682,2.8640465763386875
6,38,13,2,91,91,90,2,4.266114510002808,4.59670238000035,0.75,0.8,5,1,4.2,1 1 1 1 1,1 0 1 1 1,0 1 0 0 0,-0,stay,1,45.6485661607913,13.8807641605208,32.2583009374567,73.4782179739155,0.288929756451991,207.7009760316004,20.54185477235608,95.16286702023498,10.573651891137217,0.08348040416340682,0.04062515190936143
6,39,14,2,87,85,70,2,9.649369210001169,3.74741778000316,0.75,0.7555555555555555,45,0,5.9,9 9 9 9 9,5 8 7 7 7,4 1 2 2 2,0.1176470588235294,compromise,2.4285714285714284,45.6485661607913,13.8807641605208,32.2583009374567,73.4782179739155,0.288929756451991,543.4319168843892,81.20247033904668,74.01556323796054,31.720955673411666,0.08348040416340682,1.5049366075018862
6,40,15,2,4,10,20,2,6.132645710003999,6.35635267999896,0.125,0.13333333333333333,45,0,5.2,9 9 9 9 9,0 3 3 0 0,9 6 6 9 9,0.375,compromise,2.4285714285714284,45.6485661607913,13.8807641605208,32.2583009374567,73.4782179739155,0.288929756451991,24.98537548893744,599.6490117344985,21.14730378227444,84.58921512909777,0.08348040416340682,3.1680249448896967
6,41,16,2,67,61,50,3,5.882515710003645,5.90743447999921,0.625,0.6222222222222222,45,0,5.5,9 9 9 9 9,6 5 5 6 6,3 4 4 3 3,0.35294117647058826,compromise,2.4285714285714284,45.6485661607913,13.8807641605208,32.2583009374567,73.4782179739155,0.288929756451991,418.50503943970216,206.12934778373383,89.60736844264386,89.60736844264386,0.02411997284344691,1.9656872286224665
6,42,17,2,7,13,22,2,3.2492103100012173,6.02149108000231,0.125,0.2,5,0,4.8,1 1 1 1 1,0 0 0 1 0,1 1 1 0 1,0.4,compromise,1,45.6485661607913,13.8807641605208,32.2583009374567,73.4782179739155,0.288929756451991,15.976998156276956,212.2658326476795,23.262034160501884,82.47448475087032,0.08348040416340682,2.7723568813027457
6,43,18,2,12,14,29,2,1.4658029099991836,3.59309088000737,0.25,0.24444444444444444,45,0,4.3,9 9 9 9 9,2 3 2 1 3,7 6 7 8 6,0.1176470588235294,compromise,2.4285714285714284,45.6485661607913,13.8807641605208,32.2583009374567,73.4782179739155,0.288929756451991,74.95612646681231,549.6782607566237,30.663590484297938,75.07292842707426,0.08348040416340682,1.5957020192818185
6,44,19,2,8,12,24,3,3.6662296099966634,5.65774747999967,0.25,0.24444444444444444,45,0,4.5,9 9 9 9 9,0 2 4 3 2,9 7 5 6 7,0.25,compromise,2.4285714285714284,45.6485661607913,13.8807641605208,32.2583009374567,73.4782179739155,0.288929756451991,49.97075097787488,574.6636362455611,43.01153685246905,136.20320003281867,0.02411997284344691,4.253956026204439
6,45,20,2,63,57,46,2,6.078578610002296,7.64100478000182,0.625,0.6,5,0,4.8,1 1 1 1 1,1 1 0 0 1,0 0 1 1 0,0.35294117647058826,compromise,1,45.6485661607913,13.8807641605208,32.2583009374567,73.4782179739155,0.288929756451991,143.7929834064926,84.4498473974639,48.63879869923122,57.09772021214099,0.08348040416340682,1.391937308471644
6,46,21,2,67,67,67,1,9.028264610002225,5.87775918000261,0.625,0.6222222222222222,45,1,4.2,9 9 9 9 9,6 6 7 4 5,3 3 2 5 4,NA,NA,2.4285714285714284,45.6485661607913,13.8807641605208,32.2583009374567,73.4782179739155,0.288929756451991,418.50503943970216,206.12934778373383,21.61306162809599,10.645239309360711,0.288929756451991,6.206602522538913e-4
6,47,22,2,69,65,54,2,6.976064710001083,3.69133828000122,0.625,0.6222222222222222,45,0,5.1,9 9 9 9 9,8 5 6 2 7,1 4 3 7 2,0.26666666666666666,compromise,2.4285714285714284,45.6485661607913,13.8807641605208,32.2583009374567,73.4782179739155,0.288929756451991,430.9977271841708,193.6366600392652,57.09772021214099,48.63879869923121,0.08348040416340682,0.6740718669389258
6,48,23,2,33,40,50,1,4.290993710001203,5.361584580005,0.375,0.4,5,0,4,1 1 1 1 1,1 1 0 0 0,0 0 1 1 1,0.4117647058823529,compromise,1,45.6485661607913,13.8807641605208,32.2583009374567,73.4782179739155,0.288929756451991,75.32013416530565,152.92269663865082,16.12915046872835,16.12915046872835,0.288929756451991,0.22538845964383714
6,49,24,2,14,14,30,1,2.094014310001512,4.51466888999494,0.25,0.24444444444444444,45,0,4.8,9 9 9 9 9,1 1 4 2 3,8 8 5 7 6,0,stay,2.4285714285714284,45.6485661607913,13.8807641605208,32.2583009374567,73.4782179739155,0.288929756451991,87.44881421128105,537.185573012155,9.677490281237011,22.58081065621969,0.288929756451991,0.15413093809841608
6,50,25,2,72,72,18,2,8.902700610000466,4.3569218800003,0.75,0.7555555555555555,45,1,5.3,9 9 9 9 9,6 8 6 8 6,3 1 3 1 3,-0,stay,2.4285714285714284,45.6485661607913,13.8807641605208,32.2583009374567,73.4782179739155,0.288929756451991,449.7367588008739,174.8976284225621,19.032573404046996,86.70394550732522,0.08348040416340682,8.607029919269499
6,51,1,3,11,11,10,1,4.849336330000369,3.09016762999454,0.25,0.2,5,1,4.6,1 1 1 1 1,0 0 1 0 0,1 1 0 1 1,-0,stay,1,45.6485661607913,13.8807641605208,32.2583009374567,73.4782179739155,0.288929756451991,25.106711388435215,203.13611941552128,3.2258300937456705,29.03247084371103,0.288929756451991,0.006545384744642657
6,52,2,3,77,77,59,1,5.6036874299970805,4.7020658399997,0.75,0.7555555555555555,45,0,4,9 9 9 9 9,9 7 6 6 6,0 2 3 3 3,-0,stay,2.4285714285714284,45.6485661607913,13.8807641605208,32.2583009374567,73.4782179739155,0.288929756451991,480.9684781620457,143.66590906139027,19.032397553099454,13.225903384357249,0.288929756451991,0.13500733494078013
6,53,3,3,86,86,68,2,5.3742067299972405,4.98841334000099,0.75,0.7555555555555555,45,0,4.5,9 9 9 9 9,7 8 6 8 5,2 1 3 1 4,-0,stay,2.4285714285714284,45.6485661607913,13.8807641605208,32.2583009374567,73.4782179739155,0.288929756451991,537.185573012155,87.44881421128105,71.9008328597331,33.8356860516391,0.08348040416340682,1.5910785661237903
6,54,4,3,63,70,80,3,4.811836329994549,4.14675213999726,0.625,0.6,5,0,5.3,1 1 1 1 1,1 1 1 0 0,0 0 0 1 1,0.4117647058823529,compromise,1,45.6485661607913,13.8807641605208,32.2583009374567,73.4782179739155,0.288929756451991,143.7929834064926,84.4498473974639,143.3717895082302,35.842947377057534,0.02411997284344691,3.022706775664975
6,55,5,3,52,54,67,2,4.032436329995107,3.32288153999616,0.625,0.6222222222222222,45,0,5.7,9 9 9 9 9,7 6 6 6 3,2 3 3 3 6,0.13333333333333333,compromise,2.4285714285714284,45.6485661607913,13.8807641605208,32.2583009374567,73.4782179739155,0.288929756451991,324.80988135618674,299.82450586724923,70.84346767061938,34.893051240752825,0.08348040416340682,0.5973485120915473
6,56,6,3,92,90,74,1,4.374224529998173,4.54703350999989,0.75,0.8,5,0,5.2,1 1 1 1 1,1 1 0 1 1,0 0 1 0 0,0.1111111111111111,compromise,1,45.6485661607913,13.8807641605208,32.2583009374567,73.4782179739155,0.288929756451991,209.98340433964,18.25942646431651,23.87114269371796,8.387158243738742,0.288929756451991,0.6407860071213688
6,57,7,3,9,15,25,2,3.557533430001058,3.88741213999674,0.25,0.2,5,0,4.4,1 1 1 1 1,0 1 0 0 0,1 0 1 1 1,0.375,compromise,1,45.6485661607913,13.8807641605208,32.2583009374567,73.4782179739155,0.288929756451991,20.541854772356082,207.7009760316004,26.43412972784305,79.30238918352916,0.08348040416340682,2.6651614114049664
6,58,8,3,9,17,27,3,3.583711929997662,3.46459934000086,0.25,0.2,5,0,5.3,1 1 1 1 1,0 0 0 0 1,1 1 1 1 0,0.4444444444444444,compromise,1,45.6485661607913,13.8807641605208,32.2583009374567,73.4782179739155,0.288929756451991,20.541854772356082,207.7009760316004,48.387978959027684,130.82675792626003,0.02411997284344691,5.8463795144262205
6,59,9,3,43,41,27,1,4.532555030000367,5.6439322399965,0.375,0.4,5,0,5.1,1 1 1 1 1,0 0 1 1 0,1 1 0 0 1,0.125,compromise,1,45.6485661607913,13.8807641605208,32.2583009374567,73.4782179739155,0.288929756451991,98.14441724570129,130.09841355825523,8.709741253113311,23.54855968434339,0.288929756451991,0.18850765228282934
6,60,10,3,6,7,22,3,3.8324830299970927,2.52296573999774,0.125,0.13333333333333333,45,0,5,9 9 9 9 9,0 1 2 2 1,9 8 7 7 8,0.0625,compromise,2.4285714285714284,45.6485661607913,13.8807641605208,32.2583009374567,73.4782179739155,0.288929756451991,37.478063233406154,587.1563239900298,39.427242114763295,139.78749477052443,0.02411997284344691,5.159774676987042
6,61,11,3,7,13,25,3,2.2202405299976817,2.94196123999791,0.125,0.2,5,0,4.2,1 1 1 1 1,0 1 0 0 0,1 0 1 1 1,0.3333333333333333,compromise,1,45.6485661607913,13.8807641605208,32.2583009374567,73.4782179739155,0.288929756451991,15.976998156276956,212.2658326476795,44.80368422132193,134.4110526639658,0.02411997284344691,6.658391662118696
6,62,12,3,28,34,45,3,5.224091729996871,3.44824433999747,0.375,0.4,5,0,5.3,1 1 1 1 1,0 0 1 0 1,1 1 0 1 0,0.35294117647058826,compromise,1,45.6485661607913,13.8807641605208,32.2583009374567,73.4782179739155,0.288929756451991,63.90799262510782,164.33483817884866,80.64663159837947,98.56810528690825,0.02411997284344691,2.925267283124221
6,63,13,3,100,99,98,3,3.638359929998842,3.64478403999965,1,1,45,1,5.9,9 9 9 9 9,9 9 9 9 9,0 0 0 0 0,0.5,compromise,2.4285714285714284,45.6485661607913,13.8807641605208,32.2583009374567,73.4782179739155,0.288929756451991,624.634387223436,0,175.63044214758196,3.5842947377057577,0.02411997284344691,6.27859845764985
6,64,14,3,19,19,17,1,4.503445130001637,3.54136604000087,0.25,0.24444444444444444,45,1,4.1,9 9 9 9 9,3 2 2 3 1,6 7 7 6 8,-0,stay,2.4285714285714284,45.6485661607913,13.8807641605208,32.2583009374567,73.4782179739155,0.288929756451991,118.68053357245284,505.9538536509832,5.48391115936764,26.774389778089063,0.288929756451991,0.0026744724286759313
6,65,15,3,8,9,10,3,1.7826421299978392,2.58290933999524,0.125,0.2,5,1,5.1,1 1 1 1 1,0 0 1 0 0,1 1 0 1 1,0.5,compromise,1,45.6485661607913,13.8807641605208,32.2583009374567,73.4782179739155,0.288929756451991,18.25942646431652,209.98340433964,17.921473688528774,161.29326319675894,0.02411997284344691,0.16037949088684106
6,66,16,3,38,42,53,2,4.124353129998781,2.24912684000083,0.375,0.37777777777777777,45,0,4.9,9 9 9 9 9,4 3 3 4 3,5 6 6 5 6,0.26666666666666666,compromise,2.4285714285714284,45.6485661607913,13.8807641605208,32.2583009374567,73.4782179739155,0.288929756451991,237.3610671449057,387.2733200785303,56.04035502302727,49.696163888344934,0.08348040416340682,0.6200818194363034
6,67,17,3,36,36,20,1,3.440961829997832,3.33987223999793,0.25,0.24444444444444444,45,0,4.4,9 9 9 9 9,1 0 2 5 3,8 9 7 4 6,-0,stay,2.4285714285714284,45.6485661607913,13.8807641605208,32.2583009374567,73.4782179739155,0.288929756451991,224.86837940043694,399.76600782299903,6.451660187491341,25.806640749965364,0.288929756451991,0.08494354466009099
6,68,18,3,82,80,65,3,4.134202429995639,7.2117314399984,0.75,0.7555555555555555,45,0,4.7,9 9 9 9 9,8 5 8 6 7,1 4 1 3 2,0.1176470588235294,compromise,2.4285714285714284,45.6485661607913,13.8807641605208,32.2583009374567,73.4782179739155,0.288929756451991,512.2001975232175,112.4341897002185,116.48957897543703,62.7251579098507,0.02411997284344691,2.7459858634750036
6,69,19,3,13,18,30,3,4.063408829995751,4.88585843999681,0.125,0.13333333333333333,45,0,5.8,9 9 9 9 9,1 2 1 1 1,8 7 8 8 8,0.29411764705882354,compromise,2.4285714285714284,45.6485661607913,13.8807641605208,32.2583009374567,73.4782179739155,0.288929756451991,81.20247033904668,543.4319168843892,53.76442106558631,125.4503158197014,0.02411997284344691,3.4096352407523165
6,70,20,3,7,13,23,2,3.7668252300027234,9.17686533999949,0.125,0.2,5,0,5.8,1 1 1 1 1,0 0 1 0 0,1 1 0 1 1,0.375,compromise,1,45.6485661607913,13.8807641605208,32.2583009374567,73.4782179739155,0.288929756451991,15.976998156276956,212.2658326476795,24.31939934961561,81.41711956175659,0.08348040416340682,3.1030020244502166
6,71,21,3,11,30,80,3,3.049337229997036,11.1354244399954,0.125,0.13333333333333333,45,1,4.9,9 9 9 9 9,1 0 2 1 2,8 9 7 8 7,0.2753623188405797,compromise,2.4285714285714284,45.6485661607913,13.8807641605208,32.2583009374567,73.4782179739155,0.288929756451991,68.70978259457796,555.924604628858,143.3717895082302,35.842947377057534,0.02411997284344691,45.202663206807
6,72,22,3,9,12,25,1,2.846800629999052,4.04933196999991,0.125,0.13333333333333333,45,0,5.7,9 9 9 9 9,1 2 1 0 2,8 7 8 9 7,0.1875,compromise,2.4285714285714284,45.6485661607913,13.8807641605208,32.2583009374567,73.4782179739155,0.288929756451991,56.217094850109234,568.4172923733267,8.064575234364176,24.193725703092525,0.288929756451991,0.22100153954125248
6,73,23,3,36,36,53,1,2.4026712299964856,4.10483133999878,0.375,0.37777777777777777,45,0,5,9 9 9 9 9,3 2 3 5 4,6 7 6 4 5,0,stay,2.4285714285714284,45.6485661607913,13.8807641605208,32.2583009374567,73.4782179739155,0.288929756451991,224.86837940043694,399.76600782299903,17.096899496852053,15.16140144060465,0.288929756451991,0.0940680882511362
6,74,24,3,11,13,26,1,2.251832429999922,2.69907984000019,0.25,0.2,5,0,4.6,1 1 1 1 1,0 0 0 1 0,1 1 1 0 1,0.13333333333333333,compromise,1,45.6485661607913,13.8807641605208,32.2583009374567,73.4782179739155,0.288929756451991,25.106711388435215,203.13611941552128,8.387158243738742,23.87114269371796,0.288929756451991,0.35782186250373205
6,75,25,3,62,71,80,2,6.7575289300039,4.67926213999817,0.625,0.6,5,0,5.1,1 1 1 1 1,1 0 1 0 1,0 1 0 1 0,0.5,compromise,1,45.6485661607913,13.8807641605208,32.2583009374567,73.4782179739155,0.288929756451991,141.51055509845304,86.73227570550345,84.58921512909777,21.147303782274435,0.08348040416340682,1.6862072309896423
8,1,1,1,80,80,63,1,5.363055459999487,6.32402876000015,0.75,0.8,5,0,4.7,1 1 1 1 1,1 1 1 0 1,0 0 0 1 0,-0,stay,3,33.2856760328505,4.64249632188535,10.702125113945,90.9916032515449,0.500001052311495,133.142704131402,33.285676032850496,6.74233882178535,3.95978629215965,0.500001052311495,0.05273268859657555
8,2,2,1,20,20,20,2,6.867331060000652,3.92475611999998,0.375,0.4,5,1,4.3,1 1 1 1 1,1 0 0 1 0,0 1 1 0 1,NA,NA,3,33.2856760328505,4.64249632188535,10.702125113945,90.9916032515449,0.500001052311495,33.2856760328505,133.142704131402,20.338745673097982,81.35498269239193,0.2500010523126024,0.048317564229976045
8,3,3,1,80,80,65,2,7.936351559999821,6.60290718000033,0.625,0.6,5,0,4.2,1 1 1 1 1,1 1 0 0 1,0 0 1 1 0,-0,stay,3,33.2856760328505,4.64249632188535,10.702125113945,90.9916032515449,0.500001052311495,133.142704131402,33.285676032850496,66.10092343756844,35.59280492792146,0.2500010523126024,1.4946024044765196
8,4,4,1,78,78,60,1,6.766612459999124,6.0855514800005,0.75,0.7555555555555555,45,0,5.1,9 9 9 9 9,7 6 7 7 7,2 3 2 2 2,-0,stay,2.2857142857142856,33.2856760328505,4.64249632188535,10.702125113945,90.9916032515449,0.500001052311495,162.95162089817578,45.96071358666496,6.421275068367,4.280850045578,0.500001052311495,0.04551997019098483
8,5,5,1,80,72,65,3,7.634798360000786,5.69820277999952,0.75,0.8,5,0,4.6,1 1 1 1 1,1 1 1 0 1,0 0 0 1 0,0.5333333333333333,compromise,3,33.2856760328505,4.64249632188535,10.702125113945,90.9916032515449,0.500001052311495,133.142704131402,33.285676032850496,125.24546555107261,67.43986606596218,0.12500078923528232,2.9004546882695563
8,6,6,1,45,43,27,1,9.73409656000058,6.64666628000032,0.375,0.4,5,0,4.5,1 1 1 1 1,1 0 0 0 1,0 1 1 1 0,0.1111111111111111,compromise,3,33.2856760328505,4.64249632188535,10.702125113945,90.9916032515449,0.500001052311495,74.89277107391364,91.53560909033888,2.8895737807651503,7.81255133317985,0.500001052311495,0.04074429474823282
8,7,7,1,80,80,65,1,5.378234860000703,6.1616609799994,0.625,0.6,5,0,5.8,1 1 1 1 1,0 0 1 1 1,1 1 0 0 0,-0,stay,3,33.2856760328505,4.64249632188535,10.702125113945,90.9916032515449,0.500001052311495,133.142704131402,33.285676032850496,6.9563813240642505,3.7457437898807497,0.500001052311495,0.041259623733218384
8,8,8,1,4,4,3,3,10.633459460000267,1.94993137999973,0,0,45,1,5.8,9 9 9 9 9,0 0 0 0 0,9 9 9 9 9,-0,stay,2.2857142857142856,33.2856760328505,4.64249632188535,10.702125113945,90.9916032515449,0.500001052311495,8.35649337939363,200.5558411054471,5.780559948511043,186.90477166852375,0.12500078923528232,0.18235369411574145
8,9,9,1,15,15,31,1,2.796180660000573,3.26872637999986,0.25,0.24444444444444444,45,0,5.4,9 9 9 9 9,3 1 3 3 1,6 8 6 6 8,0,stay,2.2857142857142856,33.2856760328505,4.64249632188535,10.702125113945,90.9916032515449,0.500001052311495,31.336850172726113,177.57548431211464,3.31765878532295,7.384466328622049,0.500001052311495,0.04743555670470428
8,10,10,1,20,29,35,3,5.668504160000339,7.34672127999966,0.375,0.4,5,0,5.6,1 1 1 1 1,0 0 1 1 0,1 1 0 0 1,0.6,compromise,3,33.2856760328505,4.64249632188535,10.702125113945,90.9916032515449,0.500001052311495,33.2856760328505,133.142704131402,67.43986606596218,125.24546555107261,0.12500078923528232,2.9004546882695594
8,11,11,1,76,74,61,3,4.5990770600010364,3.66770008000003,0.75,0.7555555555555555,45,0,5.7,9 9 9 9 9,7 6 9 6 6,2 3 0 3 3,0.13333333333333333,compromise,2.2857142857142856,33.2856760328505,4.64249632188535,10.702125113945,90.9916032515449,0.500001052311495,158.77337420847897,50.13896027636177,117.53805228639122,75.14727933064357,0.12500078923528232,2.6836243833744104
8,12,12,1,15,17,30,1,4.161656559999756,5.07935088000067,0.25,0.24444444444444444,45,0,5,9 9 9 9 9,3 2 2 2 2,6 7 7 7 7,0.13333333333333333,compromise,2.2857142857142856,33.2856760328505,4.64249632188535,10.702125113945,90.9916032515449,0.500001052311495,31.336850172726113,177.57548431211464,3.2106375341835,7.4914875797614995,0.500001052311495,0.04177497144790661
8,13,13,1,85,78,67,2,7.3003827600005025,3.7338848799991,0.75,0.7555555555555555,45,0,5,9 9 9 9 9,6 7 7 8 6,3 2 2 1 3,0.3888888888888889,compromise,2.2857142857142856,33.2856760328505,4.64249632188535,10.702125113945,90.9916032515449,0.500001052311495,177.57548431211464,31.336850172726116,68.13479800487823,33.55893036061166,0.2500010523126024,2.3499212349339555
8,14,14,1,53,53,35,1,5.0530941600000006,7.48018627999954,0.375,0.37777777777777777,45,0,4.7,9 9 9 9 9,3 3 3 4 4,6 6 6 5 5,-0,stay,2.2857142857142856,33.2856760328505,4.64249632188535,10.702125113945,90.9916032515449,0.500001052311495,110.7235372769656,98.18879720787514,3.7457437898807497,6.9563813240642505,0.500001052311495,0.03263864868197942
8,15,15,1,20,20,36,1,6.049796560000686,3.8465553799997,0.375,0.4,5,0,5.6,1 1 1 1 1,0 1 0 1 0,1 0 1 0 1,0,stay,3,33.2856760328505,4.64249632188535,10.702125113945,90.9916032515449,0.500001052311495,33.2856760328505,133.142704131402,3.8527650410202,6.8493600729248,0.500001052311495,0.04682080937784927
8,16,16,1,65,56,48,3,5.886707159999787,6.77977207999993,0.625,0.6222222222222222,45,0,4,9 9 9 9 9,7 4 5 8 4,2 5 4 1 5,0.5294117647058824,compromise,2.2857142857142856,33.2856760328505,4.64249632188535,10.702125113945,90.9916032515449,0.500001052311495,135.7930174151465,73.11931706969425,92.48895917617669,100.1963724408581,0.12500078923528232,2.9507939897530293
8,17,17,1,80,80,80,2,26.745153159999063,4.32641597999918,0.75,0.8,5,1,4.3,1 1 1 1 1,1 1 1 1 0,0 0 0 0 1,NA,NA,3,33.2856760328505,4.64249632188535,10.702125113945,90.9916032515449,0.500001052311495,133.142704131402,33.285676032850496,81.35498269239193,20.338745673097975,0.2500010523126024,0.04831756422997589
8,18,18,1,50,43,35,3,3.745300460000181,7.91495507999934,0.375,0.37777777777777777,45,0,5.4,9 9 9 9 9,1 7 5 1 3,8 2 4 8 6,0.4666666666666667,compromise,2.2857142857142856,33.2856760328505,4.64249632188535,10.702125113945,90.9916032515449,0.500001052311495,104.45616724242038,104.45616724242038,67.43986606596218,125.24546555107261,0.12500078923528232,2.27240791026475
8,19,19,1,80,76,65,3,4.140646360000574,9.38040201999956,0.75,0.8,5,0,4.1,1 1 1 1 1,1 0 1 1 1,0 1 0 0 0,0.26666666666666666,compromise,3,33.2856760328505,4.64249632188535,10.702125113945,90.9916032515449,0.500001052311495,133.142704131402,33.285676032850496,125.24546555107261,67.43986606596218,0.12500078923528232,2.9004546882695563
8,20,20,1,5,10,22,2,3.3322608600010426,1.92556468000021,0.125,0.13333333333333333,45,0,4.2,9 9 9 9 9,1 1 2 2 0,8 8 7 7 9,0.29411764705882354,compromise,2.2857142857142856,33.2856760328505,4.64249632188535,10.702125113945,90.9916032515449,0.500001052311495,10.445616724242036,198.4667177605987,22.37262024040778,79.32110812508213,0.2500010523126024,4.0171218572513165
8,21,21,1,80,80,63,2,9.887202560000333,12.5463040800005,0.125,0.2,5,0,4.5,1 1 1 1 1,0 0 0 0 1,1 1 1 1 0,-0,stay,3,33.2856760328505,4.64249632188535,10.702125113945,90.9916032515449,0.500001052311495,133.142704131402,33.285676032850496,64.06704887025865,37.626679495231265,0.2500010523126024,1.8861598933223394
8,22,22,1,26,25,44,1,12.149070759999631,2.10927978000018,0.375,0.37777777777777777,45,0,5.6,9 9 9 9 9,3 5 0 5 4,6 4 9 4 5,-0.05555555555555555,stay,2.2857142857142856,33.2856760328505,4.64249632188535,10.702125113945,90.9916032515449,0.500001052311495,54.3172069660586,154.59512751878214,4.7089350501358,5.993190063809201,0.500001052311495,0.040982309770682
8,23,23,1,81,81,65,2,8.578594960000373,8.39603648000048,0.75,0.7555555555555555,45,0,4.4,9 9 9 9 9,6 7 7 6 8,3 2 2 3 1,-0,stay,2.2857142857142856,33.2856760328505,4.64249632188535,10.702125113945,90.9916032515449,0.500001052311495,169.21899093272103,39.69334355211973,66.10092343756844,35.59280492792146,0.2500010523126024,1.6439819857755855
8,24,24,1,15,15,14,3,6.97391325999979,3.16586168000049,0.125,0.13333333333333333,45,1,5.2,9 9 9 9 9,0 1 1 1 3,9 8 8 8 6,-0,stay,2.2857142857142856,33.2856760328505,4.64249632188535,10.702125113945,90.9916032515449,0.500001052311495,31.336850172726113,177.57548431211464,26.975946426384873,165.70938519064993,0.12500078923528232,0.11186460541096477
8,25,25,1,64,65,49,1,3.183553060000122,3.30013117999988,0.625,0.6222222222222222,45,0,5.4,9 9 9 9 9,5 4 7 5 7,4 5 2 4 2,-0.06666666666666667,stay,2.2857142857142856,33.2856760328505,4.64249632188535,10.702125113945,90.9916032515449,0.500001052311495,133.70389407029808,75.20844041454266,5.24404130583305,5.45808380811195,0.500001052311495,0.024355204499787245
8,26,1,2,10,15,25,2,2.829673549999825,3.7642929499998,0.125,0.13333333333333333,45,0,5.8,9 9 9 9 9,4 0 1 0 1,5 9 8 9 8,0.3333333333333333,compromise,2.2857142857142856,33.2856760328505,4.64249632188535,10.702125113945,90.9916032515449,0.500001052311495,20.891233448484073,188.02110103635667,25.423432091372476,76.27029627411743,0.2500010523126024,2.158868337226564
8,27,2,2,80,80,80,1,3.79897494999932,7.57956389999981,0.625,0.6,5,1,4.6,1 1 1 1 1,0 1 0 1 1,1 0 1 0 0,NA,NA,3,33.2856760328505,4.64249632188535,10.702125113945,90.9916032515449,0.500001052311495,133.142704131402,33.285676032850496,8.561700091156,2.1404250227889996,0.500001052311495,9.389865291255489e-4
8,28,3,2,8,8,24,2,2.273817850000341,5.72339530000045,0.25,0.24444444444444444,45,0,4.1,9 9 9 9 9,4 2 3 2 0,5 7 6 7 9,0,stay,2.2857142857142856,33.2856760328505,4.64249632188535,10.702125113945,90.9916032515449,0.500001052311495,16.71298675878726,192.19934772605347,24.406494807717575,77.28723355777232,0.2500010523126024,2.7757255509767425
8,29,4,2,20,20,86,3,3.3323940499994933,9.21721820000039,0.125,0.2,5,1,4.7,1 1 1 1 1,0 1 0 0 0,1 0 1 1 1,0,stay,3,33.2856760328505,4.64249632188535,10.702125113945,90.9916032515449,0.500001052311495,33.2856760328505,133.142704131402,165.70938519064993,26.975946426384873,0.12500078923528232,43.774834328904035
8,30,5,2,40,40,23,2,9.074139350000223,2.08924200000001,0.375,0.4,5,0,5,1 1 1 1 1,0 1 0 0 1,1 0 1 1 0,-0,stay,3,33.2856760328505,4.64249632188535,10.702125113945,90.9916032515449,0.500001052311495,66.571352065701,99.85702809855151,23.389557524062678,78.30417084142722,0.2500010523126024,1.5645271196224573
8,31,6,2,30,30,31,2,4.023869350000496,4.04921789999935,0.375,0.37777777777777777,45,1,4.7,9 9 9 9 9,6 1 4 3 3,3 8 5 6 6,0,stay,2.2857142857142856,33.2856760328505,4.64249632188535,10.702125113945,90.9916032515449,0.500001052311495,62.673700345452225,146.2386341393885,31.52505579330187,70.16867257218803,0.2500010523126024,0.038536220391431286
8,32,7,2,18,21,35,2,4.358410349999758,1.3872499500003,0.375,0.37777777777777777,45,0,4.1,9 9 9 9 9,4 3 3 3 4,5 6 6 6 5,0.17647058823529413,compromise,2.2857142857142856,33.2856760328505,4.64249632188535,10.702125113945,90.9916032515449,0.500001052311495,37.60422020727133,171.30811427756944,35.59280492792146,66.10092343756844,0.2500010523126024,1.8995977948960399
8,33,8,2,40,32,24,3,4.708278049999535,2.01569749999999,0.375,0.4,5,0,5.9,1 1 1 1 1,1 0 0 1 0,0 1 1 0 1,0.5,compromise,3,33.2856760328505,4.64249632188535,10.702125113945,90.9916032515449,0.500001052311495,66.571352065701,99.85702809855151,46.244479588088346,146.44085202894644,0.12500078923528232,2.863892540285525
8,34,9,2,94,94,95,3,5.8212946499998,4.04646119999961,1,1,5,1,5.3,1 1 1 1 1,1 1 1 1 1,0 0 0 0 0,0,stay,3,33.2856760328505,4.64249632188535,10.702125113945,90.9916032515449,0.500001052311495,156.44267735439735,9.98570280985516,183.05106503618305,9.634266580851747,0.12500078923528232,0.18413062991409684
8,35,10,2,80,80,65,2,3.911960649999856,2.41306929999973,0.75,0.8,5,0,5.2,1 1 1 1 1,1 1 0 1 1,0 0 1 0 0,-0,stay,3,33.2856760328505,4.64249632188535,10.702125113945,90.9916032515449,0.500001052311495,133.142704131402,33.285676032850496,66.10092343756844,35.59280492792146,0.2500010523126024,1.4946024044765196
8,36,11,2,20,23,37,2,2.7821993500001554,2.74050319999969,0.25,0.2,5,0,4.5,1 1 1 1 1,0 1 0 0 0,1 0 1 1 1,0.17647058823529413,compromise,3,33.2856760328505,4.64249632188535,10.702125113945,90.9916032515449,0.500001052311495,33.2856760328505,133.142704131402,37.626679495231265,64.06704887025865,0.2500010523126024,1.886159893322334
8,37,12,2,90,90,74,1,3.690550250000342,3.85040469999967,0.75,0.7555555555555555,45,0,4.4,9 9 9 9 9,7 7 7 7 6,2 2 2 2 3,-0,stay,2.2857142857142856,33.2856760328505,4.64249632188535,10.702125113945,90.9916032515449,0.500001052311495,188.02110103635667,20.89123344848407,7.9195725843193,2.7825525296257,0.500001052311495,0.06519463517374559
8,38,13,2,80,80,65,2,7.133909050000511,3.97838390000106,0.75,0.8,5,0,5.8,1 1 1 1 1,1 1 1 1 0,0 0 0 0 1,-0,stay,3,33.2856760328505,4.64249632188535,10.702125113945,90.9916032515449,0.500001052311495,133.142704131402,33.285676032850496,66.10092343756844,35.59280492792146,0.2500010523126024,1.4946024044765196
8,39,14,2,14,18,32,2,4.788333350000357,2.39646930000072,0.25,0.24444444444444444,45,0,5.7,9 9 9 9 9,1 1 2 5 2,8 8 7 4 7,0.2222222222222222,compromise,2.2857142857142856,33.2856760328505,4.64249632188535,10.702125113945,90.9916032515449,0.500001052311495,29.247726827877706,179.66460765696306,32.54199307695677,69.15173528853313,0.2500010523126024,2.4480929516082406
8,40,15,2,9,14,25,2,2.182608550000623,3.00841890000083,0.375,0.37777777777777777,45,0,4.4,9 9 9 9 9,3 3 4 6 1,6 6 5 3 8,0.3125,compromise,2.2857142857142856,33.2856760328505,4.64249632188535,10.702125113945,90.9916032515449,0.500001052311495,18.802110103635666,190.1102243812051,25.423432091372476,76.27029627411743,0.2500010523126024,2.585497697118199
8,41,16,2,20,20,3,2,4.14638664999984,3.22557649999999,0.125,0.2,5,0,5.5,1 1 1 1 1,0 0 1 0 0,1 1 0 1 1,-0,stay,3,33.2856760328505,4.64249632188535,10.702125113945,90.9916032515449,0.500001052311495,33.2856760328505,133.142704131402,3.050811850964697,98.6429165145252,0.2500010523126024,2.7130965068143613
8,42,17,2,14,23,32,3,2.457357250000314,2.37267389999943,0.25,0.24444444444444444,45,0,5.6,9 9 9 9 9,0 2 3 3 3,9 7 6 6 6,0.5,compromise,2.2857142857142856,33.2856760328505,4.64249632188535,10.702125113945,90.9916032515449,0.500001052311495,29.247726827877706,179.66460765696306,61.65930611745114,131.02602549958365,0.12500078923528232,4.930363102539487
8,43,18,2,20,33,38,3,6.021242849999908,3.1295297000006,0.25,0.2,5,0,5.3,1 1 1 1 1,0 0 0 1 0,1 1 1 0 1,0.7222222222222222,compromise,3,33.2856760328505,4.64249632188535,10.702125113945,90.9916032515449,0.500001052311495,33.2856760328505,133.142704131402,73.22042601447322,119.46490560256157,0.12500078923528232,4.041996406417165
8,44,19,2,23,11,6,3,4.16846434999934,1.23089530000016,0.125,0.13333333333333333,45,0,5.3,9 9 9 9 9,1 2 2 1 0,8 7 7 8 9,0.7058823529411765,compromise,2.2857142857142856,33.2856760328505,4.64249632188535,10.702125113945,90.9916032515449,0.500001052311495,48.04983693151337,160.86249755332736,11.561119897022087,181.12421172001268,0.12500078923528232,4.9826443892906935
8,45,20,2,94,94,93,3,3.5741103499995006,3.54153010000027,1,1,45,1,4.1,9 9 9 9 9,9 9 9 9 9,0 0 0 0 0,-0,stay,2.2857142857142856,33.2856760328505,4.64249632188535,10.702125113945,90.9916032515449,0.500001052311495,196.37759441575028,12.534740069090455,179.19735840384237,13.487973213192426,0.12500078923528232,0.110208948112771
8,46,21,2,60,59,45,2,13.829893250000168,5.72679700000026,0.375,0.4,5,0,5.8,1 1 1 1 1,0 1 1 0 0,1 0 0 1 1,0.06666666666666667,compromise,3,33.2856760328505,4.64249632188535,10.702125113945,90.9916032515449,0.500001052311495,99.85702809855151,66.571352065701,45.76217776447046,55.93155060101945,0.2500010523126024,1.1327517075420381
8,47,22,2,20,31,35,3,4.570422449999569,2.75683570000001,0.25,0.2,5,0,5.6,1 1 1 1 1,1 0 0 0 0,0 1 1 1 1,0.7333333333333333,compromise,3,33.2856760328505,4.64249632188535,10.702125113945,90.9916032515449,0.500001052311495,33.2856760328505,133.142704131402,67.43986606596218,125.24546555107261,0.12500078923528232,2.9004546882695594
8,48,23,2,20,23,36,1,2.417855050000071,15.151242599999,0.25,0.2,5,0,5.7,1 1 1 1 1,1 0 0 0 0,0 1 1 1 1,0.1875,compromise,3,33.2856760328505,4.64249632188535,10.702125113945,90.9916032515449,0.500001052311495,33.2856760328505,133.142704131402,3.8527650410202,6.8493600729248,0.500001052311495,0.04682080937784927
8,49,24,2,19,28,35,3,2.7546071500000835,1.50941599999896,0.375,0.37777777777777777,45,0,4.3,9 9 9 9 9,4 3 3 3 4,5 6 6 6 5,0.5625,compromise,2.2857142857142856,33.2856760328505,4.64249632188535,10.702125113945,90.9916032515449,0.500001052311495,39.69334355211974,169.21899093272103,67.43986606596218,125.24546555107261,0.12500078923528232,3.3936303087028152
8,50,25,2,45,36,30,3,7.199054149999029,5.02432789999966,0.25,0.24444444444444444,45,0,5.2,9 9 9 9 9,3 1 2 2 3,6 8 7 7 6,0.6,compromise,2.2857142857142856,33.2856760328505,4.64249632188535,10.702125113945,90.9916032515449,0.500001052311495,94.01055051817833,114.90178396666242,57.805599485110434,134.87973213192436,0.12500078923528232,2.345933658039834
8,51,1,3,20,23,38,2,2.357379370000672,1.66899317000025,0.25,0.2,5,0,5.2,1 1 1 1 1,0 0 0 0 1,1 1 1 1 0,0.16666666666666666,compromise,3,33.2856760328505,4.64249632188535,10.702125113945,90.9916032515449,0.500001052311495,33.2856760328505,133.142704131402,38.64361677888616,63.05011158660374,0.2500010523126024,2.097602172923863
8,52,2,3,11,11,26,1,1.8406001700013803,2.76809435999985,0.125,0.13333333333333333,45,0,4.4,9 9 9 9 9,3 0 1 1 1,6 9 8 8 8,0,stay,2.2857142857142856,33.2856760328505,4.64249632188535,10.702125113945,90.9916032515449,0.500001052311495,22.980356793332483,185.93197769150825,2.7825525296257,7.9195725843193,0.500001052311495,0.05320126823662661
8,53,3,3,81,73,65,3,2.214681570000721,2.66771136000079,0.75,0.7555555555555555,45,0,5.6,9 9 9 9 9,6 8 6 8 6,3 1 3 1 3,0.5,compromise,2.2857142857142856,33.2856760328505,4.64249632188535,10.702125113945,90.9916032515449,0.500001052311495,169.21899093272103,39.69334355211973,125.24546555107261,67.43986606596218,0.12500078923528232,3.3936303087028272
8,54,4,3,70,61,52,3,5.082496770000944,7.42512476000047,0.625,0.6222222222222222,45,0,5.5,9 9 9 9 9,7 6 6 5 4,2 3 3 4 5,0.5,compromise,2.2857142857142856,33.2856760328505,4.64249632188535,10.702125113945,90.9916032515449,0.500001052311495,146.2386341393885,62.67370034545223,100.1963724408581,92.48895917617669,0.12500078923528232,3.447265136535223
8,55,5,3,15,9,1,3,2.7713584700004503,2.67252873000052,0.125,0.13333333333333333,45,0,5.8,9 9 9 9 9,2 0 2 0 2,7 9 7 9 7,0.42857142857142855,compromise,2.2857142857142856,33.2856760328505,4.64249632188535,10.702125113945,90.9916032515449,0.500001052311495,31.336850172726113,177.57548431211464,1.926853316170348,190.75847830086445,0.12500078923528232,5.256585835391686
8,56,6,3,20,21,37,1,2.515827369999897,1.37863675999961,0.25,0.2,5,0,5,1 1 1 1 1,0 0 0 1 0,1 1 1 0 1,0.05882352941176471,compromise,3,33.2856760328505,4.64249632188535,10.702125113945,90.9916032515449,0.500001052311495,33.2856760328505,133.142704131402,3.95978629215965,6.74233882178535,0.500001052311495,0.052732688596574935
8,57,7,3,60,60,75,1,8.253591870000491,3.1962604600003,0.625,0.6,5,0,5.5,1 1 1 1 1,0 1 1 1 0,1 0 0 0 1,0,stay,3,33.2856760328505,4.64249632188535,10.702125113945,90.9916032515449,0.500001052311495,99.85702809855151,66.571352065701,8.02659383545875,2.67553127848625,0.500001052311495,0.02962460084587489
8,58,8,3,20,10,3,3,5.25959586999943,1.68150676000005,0.125,0.2,5,0,5.8,1 1 1 1 1,0 0 0 0 1,1 1 1 1 0,0.5882352941176471,compromise,3,33.2856760328505,4.64249632188535,10.702125113945,90.9916032515449,0.500001052311495,33.2856760328505,133.142704131402,5.780559948511043,186.90477166852375,0.12500078923528232,6.087708956085981
8,59,9,3,40,45,58,3,3.600839669999914,4.28176406000057,0.625,0.6,5,0,4.4,1 1 1 1 1,1 0 1 1 0,0 1 0 0 1,0.2777777777777778,compromise,3,33.2856760328505,4.64249632188535,10.702125113945,90.9916032515449,0.500001052311495,66.571352065701,99.85702809855151,111.75749233788017,80.92783927915463,0.12500078923528232,3.2226423120760517
8,60,10,3,20,20,72,1,3.524728569999752,10.1818839599991,0.25,0.2,5,1,4.1,1 1 1 1 1,0 0 0 0 1,1 1 1 1 0,0,stay,3,33.2856760328505,4.64249632188535,10.702125113945,90.9916032515449,0.500001052311495,33.2856760328505,133.142704131402,7.7055300820404,2.9965950319046004,0.500001052311495,0.4703112163547221
8,61,11,3,50,40,2,2,3.157196470000599,5.8358026599999,0.5,0.4888888888888889,45,1,5.2,9 9 9 9 9,5 3 6 4 4,4 6 3 5 5,0.20833333333333331,compromise,2.2857142857142856,33.2856760328505,4.64249632188535,10.702125113945,90.9916032515449,0.500001052311495,104.45616724242038,104.45616724242038,2.033874567309798,99.65985379818011,0.2500010523126024,10.877680631036256
8,62,12,3,60,65,78,2,4.419376069999998,6.86258365999947,0.625,0.6,5,0,4.6,1 1 1 1 1,0 1 0 1 1,1 0 1 0 0,0.2777777777777778,compromise,3,33.2856760328505,4.64249632188535,10.702125113945,90.9916032515449,0.500001052311495,99.85702809855151,66.571352065701,79.32110812508213,22.372620240407777,0.2500010523126024,1.7531855713897928
8,63,13,3,60,73,75,3,4.553071970000019,1.90013335999993,0.625,0.6,5,0,5.2,1 1 1 1 1,0 1 1 1 0,1 0 0 0 1,0.8666666666666667,compromise,3,33.2856760328505,4.64249632188535,10.702125113945,90.9916032515449,0.500001052311495,99.85702809855151,66.571352065701,144.5139987127761,48.1713329042587,0.12500078923528232,2.5195811924630687
8,64,14,3,16,16,1,1,3.483995170000526,3.64603956000064,0.125,0.13333333333333333,45,0,5.9,9 9 9 9 9,2 1 1 1 1,7 8 8 8 8,-0,stay,2.2857142857142856,33.2856760328505,4.64249632188535,10.702125113945,90.9916032515449,0.500001052311495,33.42597351757452,175.48636096726622,0.10702125113945,10.59510386280555,0.500001052311495,0.04357468253019973
8,65,15,3,81,81,63,2,3.777633670000796,36.617909659999,0.625,0.6222222222222222,45,0,4.1,9 9 9 9 9,7 7 6 4 4,2 2 3 5 5,-0,stay,2.2857142857142856,33.2856760328505,4.64249632188535,10.702125113945,90.9916032515449,0.500001052311495,169.21899093272103,39.69334355211973,64.06704887025865,37.626679495231265,0.2500010523126024,2.049642934245881
8,66,16,3,88,88,90,2,2.9490085699999327,4.3502784300008,0.75,0.7555555555555555,45,1,4.4,9 9 9 9 9,6 9 7 6 6,3 0 2 3 3,0,stay,2.2857142857142856,33.2856760328505,4.64249632188535,10.702125113945,90.9916032515449,0.500001052311495,183.84285434665986,25.069480138180886,91.52435552894092,10.169372836548987,0.2500010523126024,0.08560430101722485
8,67,17,3,50,55,67,1,2.9204064699997616,3.48506186000031,0.625,0.6222222222222222,45,0,4.6,9 9 9 9 9,5 5 6 5 7,4 4 3 4 2,0.29411764705882354,compromise,2.2857142857142856,33.2856760328505,4.64249632188535,10.702125113945,90.9916032515449,0.500001052311495,104.45616724242038,104.45616724242038,7.17042382634315,3.5317012876018494,0.500001052311495,0.02916106011763413
8,68,18,3,50,56,65,2,2.2796315700006744,4.95264983000015,0.625,0.6222222222222222,45,0,5.8,9 9 9 9 9,3 4 6 9 6,6 5 3 0 3,0.4,compromise,2.2857142857142856,33.2856760328505,4.64249632188535,10.702125113945,90.9916032515449,0.500001052311495,104.45616724242038,104.45616724242038,66.10092343756844,35.59280492792146,0.2500010523126024,1.04514129070928
8,69,19,3,21,21,5,1,3.499814370000422,1.98257665999972,0.125,0.2,5,0,4.5,1 1 1 1 1,0 0 0 0 1,1 1 1 1 0,-0,stay,3,33.2856760328505,4.64249632188535,10.702125113945,90.9916032515449,0.500001052311495,34.94995983449303,131.4784203297595,0.53510625569725,10.167018858247749,0.500001052311495,0.04939600478667223
8,70,20,3,20,20,37,1,2.839336470000489,1.96543118999944,0.75,0.8,5,0,5.5,1 1 1 1 1,1 1 0 1 1,0 0 1 0 0,0,stay,3,33.2856760328505,4.64249632188535,10.702125113945,90.9916032515449,0.500001052311495,33.2856760328505,133.142704131402,3.95978629215965,6.74233882178535,0.500001052311495,0.052732688596574935
8,71,21,3,6,6,8,3,2.6486165700007405,2.05856465999932,0,0,5,1,4.1,1 1 1 1 1,0 0 0 0 0,1 1 1 1 1,0,stay,3,33.2856760328505,4.64249632188535,10.702125113945,90.9916032515449,0.500001052311495,9.98570280985515,156.44267735439735,15.414826529362784,177.270505087672,0.12500078923528232,0.22674385719298726
8,72,22,3,20,20,2,1,4.317173370000091,1.85082836000038,0.125,0.2,5,0,6,1 1 1 1 1,0 0 0 1 0,1 1 1 0 1,-0,stay,3,33.2856760328505,4.64249632188535,10.702125113945,90.9916032515449,0.500001052311495,33.2856760328505,133.142704131402,0.2140425022789,10.4880826116661,0.500001052311495,0.06468528420960856
8,73,23,3,27,27,26,1,2.8297127699997877,2.89006075999987,0.25,0.24444444444444444,45,1,5.7,9 9 9 9 9,2 4 4 1 0,7 5 5 8 9,-0,stay,2.2857142857142856,33.2856760328505,4.64249632188535,10.702125113945,90.9916032515449,0.500001052311495,56.406330310907,152.50600417393375,2.7825525296257,7.9195725843193,0.500001052311495,7.588928745759867e-4
8,74,24,3,72,66,21,1,2.491387270000814,1.67528166000011,0.625,0.6222222222222222,45,1,4.5,9 9 9 9 9,4 4 8 8 4,5 5 1 1 5,0.1176470588235294,compromise,2.2857142857142856,33.2856760328505,4.64249632188535,10.702125113945,90.9916032515449,0.500001052311495,150.41688082908533,58.49545365575541,2.2474462739284498,8.45467884001655,0.500001052311495,0.3068069424134304
8,75,25,3,20,9,3,3,6.773870570000327,1.72061855999982,0.125,0.2,5,0,5,1 1 1 1 1,1 0 0 0 0,0 1 1 1 1,0.6470588235294118,compromise,3,33.2856760328505,4.64249632188535,10.702125113945,90.9916032515449,0.500001052311495,33.2856760328505,133.142704131402,5.780559948511043,186.90477166852375,0.12500078923528232,6.087708956085981
13,1,1,1,100,100,99,3,3.320343760000469,3.13591386000098,1,1,5,1,4.1,1 1 1 1 1,1 1 1 1 1,0 0 0 0 0,-0,stay,2.25,40.1746458984536,4.76056994605191,84.9795216330899,106.765029572512,0.01,200.873229492268,0,295.52448497033276,2.985095807781142,1.0000000000000002e-6,2.0616326033363213
13,2,2,1,4,4,3,3,7.19083406000027,2.36439428000085,0.125,0.2,5,1,4.5,1 1 1 1 1,0 0 0 1 0,1 1 1 0 1,-0,stay,2.25,40.1746458984536,4.76056994605191,84.9795216330899,106.765029572512,0.01,8.03492917969072,192.83830031257727,8.955287423343417,289.5542933547705,1.0000000000000002e-6,0.30506651632758885
13,3,3,1,30,30,32,2,8.31113206000009,4.66364768000039,0.375,0.4,5,1,5.2,1 1 1 1 1,0 0 0 1 1,1 1 1 0 0,0,stay,2.25,40.1746458984536,4.76056994605191,84.9795216330899,106.765029572512,0.01,60.26196884768039,140.6112606445876,61.358256385792615,130.38629481980928,1e-4,0.1306358205544032
13,4,4,1,65,50,16,1,9.746735859999715,4.8534958199989,0.625,0.6222222222222222,45,1,5.7,9 9 9 9 9,5 7 5 6 5,4 2 4 3 4,0.30612244897959184,compromise,2.2857142857142856,40.1746458984536,4.76056994605191,84.9795216330899,106.765029572512,0.01,139.24667092201835,74.97897665031758,13.596723461294385,71.38279817179551,0.01,8.430372642455596
13,5,5,1,59,68,76,1,6.4575477600010345,7.73272657999951,0.625,0.6222222222222222,45,0,5.2,9 9 9 9 9,5 5 5 5 8,4 4 4 4 1,0.5294117647058824,compromise,2.2857142857142856,40.1746458984536,4.76056994605191,84.9795216330899,106.765029572512,0.01,126.3931320676782,87.83251550465775,64.58443644114833,20.395085191941575,0.01,1.0903476982965359
13,6,6,1,8,15,24,1,6.586849060000532,4.57687661999989,0.125,0.13333333333333333,45,0,4.6,9 9 9 9 9,0 1 2 1 2,9 8 7 8 7,0.4375,compromise,2.2857142857142856,40.1746458984536,4.76056994605191,84.9795216330899,106.765029572512,0.01,17.138051805786876,197.08759576654907,20.395085191941575,64.58443644114833,0.01,2.2121666220296183
13,7,7,1,10,20,25,3,5.649384160000409,8.38027148000037,0.125,0.13333333333333333,45,0,5.6,9 9 9 9 9,0 2 1 3 0,9 7 8 6 9,0.6666666666666666,compromise,2.2857142857142856,40.1746458984536,4.76056994605191,84.9795216330899,106.765029572512,0.01,21.422564757233594,192.80308281510236,74.62739519452848,223.88218558358543,1.0000000000000002e-6,6.190348820613585
13,8,8,1,18,8,1,3,9.303818160000446,5.69893698000033,0.125,0.13333333333333333,45,0,4.9,9 9 9 9 9,0 1 1 3 1,9 8 8 6 8,0.5882352941176471,compromise,2.2857142857142856,40.1746458984536,4.76056994605191,84.9795216330899,106.765029572512,0.01,38.56061656302047,175.6650310093155,2.985095807781139,295.52448497033276,1.0000000000000002e-6,11.013667271302012
13,9,9,1,10,15,25,2,5.270562260001498,5.01351708000129,0.125,0.13333333333333333,45,0,4,9 9 9 9 9,1 1 0 2 2,8 8 9 7 7,0.3333333333333333,compromise,2.2857142857142856,40.1746458984536,4.76056994605191,84.9795216330899,106.765029572512,0.01,21.422564757233594,192.80308281510236,47.93613780140048,143.80841340420142,1e-4,4.278372183623459
13,10,10,1,12,28,30,3,8.378314160000627,9.11583638000047,0.25,0.2,5,0,5.6,1 1 1 1 1,0 0 1 0 0,1 1 0 1 1,0.8888888888888888,compromise,2.25,40.1746458984536,4.76056994605191,84.9795216330899,106.765029572512,0.01,24.10478753907216,176.76844195319583,89.55287423343417,208.95670654467972,1.0000000000000002e-6,7.593208569851797
13,11,11,1,15,20,30,1,3.882702760000029,2.7129854800005,0.375,0.37777777777777777,45,0,4.6,9 9 9 9 9,4 0 5 5 3,5 9 4 4 6,0.3333333333333333,compromise,2.2857142857142856,40.1746458984536,4.76056994605191,84.9795216330899,106.765029572512,0.01,32.133847135850395,182.09180043648556,25.49385648992697,59.485665143162926,0.01,1.316148515758484
13,12,12,1,45,35,29,3,7.621901760000583,10.8664136799998,0.375,0.4,5,0,4.3,1 1 1 1 1,1 1 0 0 0,0 0 1 1 1,0.625,compromise,2.25,40.1746458984536,4.76056994605191,84.9795216330899,106.765029572512,0.01,90.3929532715206,110.4802762207474,86.56777842565303,211.94180235246085,1.0000000000000002e-6,4.055363249357662
13,13,13,1,45,43,30,1,7.166038260000278,7.52826402000028,0.375,0.4,5,0,4.1,1 1 1 1 1,1 0 1 0 0,0 1 0 1 1,0.13333333333333333,compromise,2.25,40.1746458984536,4.76056994605191,84.9795216330899,106.765029572512,0.01,90.3929532715206,110.4802762207474,25.49385648992697,59.485665143162926,0.01,0.8484486725030591
13,14,14,1,15,22,30,2,5.907678860000488,10.5187091200005,0.25,0.24444444444444444,45,0,5,9 9 9 9 9,1 5 3 1 1,8 4 6 8 8,0.4666666666666667,compromise,2.2857142857142856,40.1746458984536,4.76056994605191,84.9795216330899,106.765029572512,0.01,32.133847135850395,182.09180043648556,57.52336536168057,134.22118584392132,1e-4,3.410983291780396
13,15,15,1,55,62,73,1,5.832722860001013,7.69909138000003,0.625,0.6,5,0,4.3,1 1 1 1 1,0 1 1 0 1,1 0 0 1 0,0.3888888888888889,compromise,2.25,40.1746458984536,4.76056994605191,84.9795216330899,106.765029572512,0.01,110.4802762207474,90.3929532715206,62.03505079215563,22.944470840934276,0.01,1.2140709140163501
13,16,16,1,10,17,25,3,11.067494760000043,12.0154601800004,0.25,0.2,5,0,5,1 1 1 1 1,0 0 0 1 0,1 1 1 0 1,0.4666666666666667,compromise,2.25,40.1746458984536,4.76056994605191,84.9795216330899,106.765029572512,0.01,20.0873229492268,180.7859065430412,74.62739519452848,223.88218558358543,1.0000000000000002e-6,6.077621053634358
13,17,17,1,40,33,23,2,4.971750960000463,7.78052571999979,0.375,0.37777777777777777,45,0,4.3,9 9 9 9 9,2 3 5 3 4,7 6 4 6 5,0.4117647058823529,compromise,2.2857142857142856,40.1746458984536,4.76056994605191,84.9795216330899,106.765029572512,0.01,85.69025902893438,128.53538854340158,44.10124677728844,147.64330442831348,1e-4,3.1532152819092656
13,18,18,1,90,82,75,3,8.366200560000834,10.4482025800007,0.75,0.8,5,0,5.6,1 1 1 1 1,1 1 1 1 0,0 0 0 0 1,0.5333333333333333,compromise,2.25,40.1746458984536,4.76056994605191,84.9795216330899,106.765029572512,0.01,180.7859065430412,20.087322949226795,223.88218558358543,74.62739519452848,1.0000000000000002e-6,6.077621053634367
13,19,19,1,60,60,62,1,6.800561360000756,4.41579208000076,0.625,0.6,5,1,5.2,1 1 1 1 1,1 1 0 0 1,0 0 1 1 0,0,stay,2.25,40.1746458984536,4.76056994605191,84.9795216330899,106.765029572512,0.01,120.52393769536079,80.3492917969072,52.68730341251574,32.29221822057416,0.01,0.042982286174750715
13,20,20,1,60,66,76,2,5.636447060001046,6.41210498000055,0.75,0.8,5,0,4.7,1 1 1 1 1,0 1 1 1 1,1 0 0 0 0,0.375,compromise,2.25,40.1746458984536,4.76056994605191,84.9795216330899,106.765029572512,0.01,120.52393769536079,80.3492917969072,145.72585891625747,46.01869228934446,1e-4,2.813500187644096
13,21,21,1,40,33,25,2,7.998833059997196,8.56308721999812,0.375,0.4,5,0,4.6,1 1 1 1 1,1 1 0 0 0,0 0 1 1 1,0.4666666666666667,compromise,2.25,40.1746458984536,4.76056994605191,84.9795216330899,106.765029572512,0.01,80.3492917969072,120.52393769536079,47.93613780140048,143.80841340420142,1e-4,2.473790846470152
13,22,22,1,15,6,1,3,9.616163259999666,6.72895297999821,0.125,0.2,5,0,4.7,1 1 1 1 1,1 0 0 0 0,0 1 1 1 1,0.6428571428571429,compromise,2.25,40.1746458984536,4.76056994605191,84.9795216330899,106.765029572512,0.01,30.130984423840196,170.7422450684278,2.985095807781139,295.52448497033276,1.0000000000000002e-6,8.840739328544334
13,23,23,1,0,1,2,3,7.6051416600002995,2.31200512000032,0,0,45,1,4.2,9 9 9 9 9,0 0 0 0 0,9 9 9 9 9,0.5,compromise,2.2857142857142856,40.1746458984536,4.76056994605191,84.9795216330899,106.765029572512,0.01,0,214.22564757233596,5.970191615562278,292.53938916255163,1.0000000000000002e-6,2.2642941900611753
13,24,24,1,63,68,80,1,5.899330860000191,8.65138017999925,0.625,0.6222222222222222,45,0,4.1,9 9 9 9 9,4 6 8 5 5,5 3 1 4 4,0.29411764705882354,compromise,2.2857142857142856,40.1746458984536,4.76056994605191,84.9795216330899,106.765029572512,0.01,134.96215797057167,79.26348960176429,67.98361730647193,16.99590432661798,0.01,1.1467057343732918
13,25,25,1,75,65,60,3,7.357654460000049,7.75948022000011,0.75,0.7555555555555555,45,0,4.3,9 9 9 9 9,7 9 5 6 7,2 0 4 3 2,0.6666666666666666,compromise,2.2857142857142856,40.1746458984536,4.76056994605191,84.9795216330899,106.765029572512,0.01,160.66923567925195,53.55641189308399,179.10574846686833,119.40383231124557,1.0000000000000002e-6,3.927658695341112
13,26,1,2,80,74,62,1,6.340787959999943,8.12219946000005,0.75,0.7555555555555555,45,0,5.3,9 9 9 9 9,3 7 8 8 8,6 2 1 1 1,0.3333333333333333,compromise,2.2857142857142856,40.1746458984536,4.76056994605191,84.9795216330899,106.765029572512,0.01,171.38051805786876,42.84512951446718,52.68730341251574,32.29221822057416,0.01,1.5574841550472154
13,27,2,2,5,5,6,3,7.940641659999528,3.19343608000054,0.125,0.13333333333333333,45,1,5,9 9 9 9 9,3 0 1 2 0,6 9 8 7 9,0,stay,2.2857142857142856,40.1746458984536,4.76056994605191,84.9795216330899,106.765029572512,0.01,10.711282378616797,203.51436519371916,17.910574846686835,280.59900593142703,1.0000000000000002e-6,0.1864877913419206
13,28,3,2,70,80,85,3,5.082378360000803,4.33690968000155,0.75,0.7555555555555555,45,0,4,9 9 9 9 9,6 5 9 7 7,3 4 0 2 2,0.6666666666666666,compromise,2.2857142857142856,40.1746458984536,4.76056994605191,84.9795216330899,106.765029572512,0.01,149.95795330063515,64.26769427170079,253.7331436613968,44.77643711671709,1.0000000000000002e-6,4.6750467942706395
13,29,4,2,88,80,70,1,6.438197760000548,10.7169839800008,0.75,0.8,5,0,5.9,1 1 1 1 1,1 1 0 1 1,0 0 1 0 0,0.4444444444444444,compromise,2.25,40.1746458984536,4.76056994605191,84.9795216330899,106.765029572512,0.01,176.76844195319583,24.10478753907216,59.485665143162926,25.493856489926973,0.01,2.1618428174718414
13,30,5,2,12,20,29,1,5.3734851600002,7.3650709800022,0.125,0.2,5,0,4.1,1 1 1 1 1,1 0 0 0 0,0 1 1 1 1,0.4705882352941176,compromise,2.25,40.1746458984536,4.76056994605191,84.9795216330899,106.765029572512,0.01,24.10478753907216,176.76844195319583,24.64406127359607,60.33546035949383,0.01,1.947653759575947
13,31,6,2,12,22,27,2,4.174191359999895,7.17305283999849,0.125,0.2,5,0,4.2,1 1 1 1 1,0 0 1 0 0,1 1 0 1 1,0.6666666666666666,compromise,2.25,40.1746458984536,4.76056994605191,84.9795216330899,106.765029572512,0.01,24.10478753907216,176.76844195319583,51.771028825512516,139.97352238008938,1e-4,3.847678661521988
13,32,7,2,14,20,31,1,4.882314460002817,5.82793528000184,0.25,0.24444444444444444,45,0,5.8,9 9 9 9 9,1 2 3 3 2,8 7 6 6 7,0.35294117647058826,compromise,2.2857142857142856,40.1746458984536,4.76056994605191,84.9795216330899,106.765029572512,0.01,29.991590660127038,184.23405691220893,26.34365170625787,58.63586992683203,0.01,1.7350551966947316
13,33,8,2,75,66,58,2,5.886285059999864,6.20285198000238,0.625,0.6222222222222222,45,0,4.7,9 9 9 9 9,6 7 3 5 7,3 2 6 4 2,0.5294117647058824,compromise,2.2857142857142856,40.1746458984536,4.76056994605191,84.9795216330899,106.765029572512,0.01,160.66923567925195,53.55641189308399,111.2118396992491,80.53271150635281,1e-4,3.3094127478897417
13,34,9,2,15,27,31,3,2.374085660001583,3.23758438000186,0.25,0.24444444444444444,45,0,4.2,9 9 9 9 9,3 0 4 1 3,6 9 5 8 6,0.75,compromise,2.2857142857142856,40.1746458984536,4.76056994605191,84.9795216330899,106.765029572512,0.01,32.133847135850395,182.09180043648556,92.5379700412153,205.97161073689858,1.0000000000000002e-6,5.629593216858321
13,35,10,2,100,99,98,3,2.474113660000512,2.95726518000083,1,1,45,1,5,9 9 9 9 9,9 9 9 9 9,0 0 0 0 0,0.5,compromise,2.2857142857142856,40.1746458984536,4.76056994605191,84.9795216330899,106.765029572512,0.01,214.22564757233596,0,292.53938916255163,5.970191615562284,1.0000000000000002e-6,2.264294190061184
13,36,11,2,44,35,26,1,5.470368160000362,3.34698858000047,0.375,0.4,5,0,5.9,1 1 1 1 1,1 0 0 0 1,0 1 1 1 0,0.5,compromise,2.25,40.1746458984536,4.76056994605191,84.9795216330899,106.765029572512,0.01,88.38422097659792,112.48900851567008,22.094675624603376,62.88484600848653,0.01,1.2236225327567931
13,37,12,2,50,51,52,2,2.311453160002202,5.25144327999988,0.5,0.4888888888888889,45,1,5.1,9 9 9 9 9,6 4 4 5 3,3 5 5 4 6,0.5,compromise,2.2857142857142856,40.1746458984536,4.76056994605191,84.9795216330899,106.765029572512,0.01,107.11282378616798,107.11282378616798,99.707166626913,92.03738457868891,1e-4,0.1209210634625757
13,38,13,2,10,15,25,1,6.107167660000414,3.80364757999996,0.125,0.13333333333333333,45,0,6,9 9 9 9 9,3 0 0 2 1,6 9 9 7 8,0.3333333333333333,compromise,2.2857142857142856,40.1746458984536,4.76056994605191,84.9795216330899,106.765029572512,0.01,21.422564757233594,192.80308281510236,21.244880408272476,63.73464122481742,0.01,1.7085507027809128
13,39,14,2,43,38,28,2,3.924000660001184,6.70329788000163,0.375,0.4,5,0,4.8,1 1 1 1 1,0 1 0 1 0,1 0 1 0 1,0.3333333333333333,compromise,2.25,40.1746458984536,4.76056994605191,84.9795216330899,106.765029572512,0.01,86.37548868167524,114.49774081059277,53.688474337568536,138.05607686803336,1e-4,2.388077238294719
13,40,15,2,50,64,67,3,3.932363660000192,5.62809641999957,0.625,0.6,5,0,4.9,1 1 1 1 1,0 1 1 1 0,1 0 0 0 1,0.8235294117647058,compromise,2.25,40.1746458984536,4.76056994605191,84.9795216330899,106.765029572512,0.01,100.436614746134,100.436614746134,200.0014191213363,98.50816165677757,1.0000000000000002e-6,4.395576163573901
13,41,16,2,15,15,16,1,5.644973660000687,2.32984188000228,0.25,0.24444444444444444,45,1,4.6,9 9 9 9 9,4 2 1 2 2,5 7 8 7 7,0,stay,2.2857142857142856,40.1746458984536,4.76056994605191,84.9795216330899,106.765029572512,0.01,32.133847135850395,182.09180043648556,13.596723461294385,71.38279817179551,0.01,0.029355065327800658
13,42,17,2,10,16,26,1,5.621448360003342,6.38646618000166,0.25,0.2,5,0,5.9,1 1 1 1 1,0 1 0 0 0,1 0 1 1 1,0.375,compromise,2.25,40.1746458984536,4.76056994605191,84.9795216330899,106.765029572512,0.01,20.0873229492268,180.7859065430412,22.094675624603376,62.88484600848653,0.01,1.9550668783662344
13,43,18,2,80,70,65,3,5.352660059999835,10.0972573800027,0.625,0.6,5,0,5.8,1 1 1 1 1,0 0 1 1 1,1 1 0 0 0,0.6666666666666666,compromise,2.25,40.1746458984536,4.76056994605191,84.9795216330899,106.765029572512,0.01,160.6985835938144,40.17464589845359,194.03122750577404,104.47835327233986,1.0000000000000002e-6,4.288817920401543
13,44,19,2,60,68,78,2,5.22781316000146,4.55147508000118,0.625,0.6,5,0,4.3,1 1 1 1 1,0 1 0 1 1,1 0 1 0 0,0.4444444444444444,compromise,2.25,40.1746458984536,4.76056994605191,84.9795216330899,106.765029572512,0.01,120.52393769536079,80.3492917969072,149.5607499403695,42.18380126523242,1e-4,3.5675717745871434
13,45,20,2,40,27,24,3,9.103253060000496,6.3655752800023,0.125,0.2,5,0,5.9,1 1 1 1 1,0 0 1 0 0,1 1 0 1 1,0.8125,compromise,2.25,40.1746458984536,4.76056994605191,84.9795216330899,106.765029572512,0.01,80.3492917969072,120.52393769536079,71.64229938674734,226.86728139136656,1.0000000000000002e-6,4.312211604022643
13,46,21,2,10,14,25,2,5.411663760001829,3.3496786800024,0.125,0.2,5,0,5.5,1 1 1 1 1,0 0 0 0 1,1 1 1 1 0,0.26666666666666666,compromise,2.25,40.1746458984536,4.76056994605191,84.9795216330899,106.765029572512,0.01,20.0873229492268,180.7859065430412,47.93613780140048,143.80841340420142,1e-4,4.2535977130338445
13,47,22,2,75,70,60,2,5.090545760000168,2.87618018000103,0.625,0.6222222222222222,45,0,4.6,9 9 9 9 9,7 4 6 3 8,2 5 3 6 1,0.3333333333333333,compromise,2.2857142857142856,40.1746458984536,4.76056994605191,84.9795216330899,106.765029572512,0.01,160.66923567925195,53.55641189308399,115.04673072336114,76.69782048224077,1e-4,2.6187389536436676
13,48,23,2,80,68,62,3,6.299187860000529,4.97276797999984,0.625,0.6222222222222222,45,0,5,9 9 9 9 9,7 5 6 5 5,2 4 3 4 4,0.6666666666666666,compromise,2.2857142857142856,40.1746458984536,4.76056994605191,84.9795216330899,106.765029572512,0.01,171.38051805786876,42.84512951446718,185.0759400824306,113.43364069568328,1.0000000000000002e-6,6.055597727021386
13,49,24,2,60,62,76,1,4.540572260000772,4.632207380002,0.625,0.6,5,0,5.5,1 1 1 1 1,0 0 1 1 1,1 1 0 0 0,0.125,compromise,2.25,40.1746458984536,4.76056994605191,84.9795216330899,106.765029572512,0.01,120.52393769536079,80.3492917969072,64.58443644114833,20.395085191941575,0.01,1.008348410617764
13,50,25,2,14,22,30,3,2.9657933599992248,5.70800267999948,0.375,0.37777777777777777,45,0,5.7,9 9 9 9 9,3 3 6 4 1,6 6 3 5 8,0.5,compromise,2.2857142857142856,40.1746458984536,4.76056994605191,84.9795216330899,106.765029572512,0.01,29.991590660127038,184.23405691220893,89.55287423343417,208.95670654467972,1.0000000000000002e-6,5.829600201263768
13,51,1,3,90,80,75,3,4.555058750000171,3.29684935000114,0.75,0.8,5,0,4.6,1 1 1 1 1,1 0 1 1 1,0 1 0 0 0,0.6666666666666666,compromise,2.25,40.1746458984536,4.76056994605191,84.9795216330899,106.765029572512,0.01,180.7859065430412,20.087322949226795,223.88218558358543,74.62739519452848,1.0000000000000002e-6,6.077621053634367
13,52,2,3,10,17,26,2,6.349226350001118,2.74871135000103,0.25,0.2,5,0,4.8,1 1 1 1 1,0 0 1 0 0,1 1 0 1 1,0.4375,compromise,2.25,40.1746458984536,4.76056994605191,84.9795216330899,106.765029572512,0.01,20.0873229492268,180.7859065430412,49.8535833134565,141.8909678921454,1e-4,4.757818640577804
13,53,3,3,80,80,80,2,3.528599350001969,2.2763672000001,0.75,0.7555555555555555,45,1,5.5,9 9 9 9 9,8 6 4 9 7,1 3 5 0 2,NA,NA,2.2857142857142856,40.1746458984536,4.76056994605191,84.9795216330899,106.765029572512,0.01,171.38051805786876,42.84512951446718,153.39564096448154,38.34891024112037,1e-4,0.08288819499781648
13,54,4,3,35,50,77,2,6.966015349998997,6.1127288500029,0.375,0.37777777777777777,45,1,4.2,9 9 9 9 9,4 2 3 3 5,5 7 6 6 4,0.35714285714285715,compromise,2.2857142857142856,40.1746458984536,4.76056994605191,84.9795216330899,106.765029572512,0.01,74.97897665031758,139.24667092201835,147.64330442831348,44.10124677728844,1e-4,17.054279735742053
13,55,5,3,30,40,46,3,5.628267249998316,3.07303384999977,0.375,0.4,5,0,5.8,1 1 1 1 1,1 0 0 0 1,0 1 1 1 0,0.625,compromise,2.25,40.1746458984536,4.76056994605191,84.9795216330899,106.765029572512,0.01,60.26196884768039,140.6112606445876,137.3144071579324,161.19517362018152,1.0000000000000002e-6,4.0887775490520575
13,56,6,3,10,14,26,2,5.507375250001132,3.33420630000182,0.25,0.2,5,0,5.2,1 1 1 1 1,0 1 0 0 0,1 0 1 1 1,0.25,compromise,2.25,40.1746458984536,4.76056994605191,84.9795216330899,106.765029572512,0.01,20.0873229492268,180.7859065430412,49.8535833134565,141.8909678921454,1e-4,4.757818640577804
13,57,7,3,10,18,28,2,2.2781614499999705,4.07189310000103,0.125,0.13333333333333333,45,0,4.6,9 9 9 9 9,1 2 2 0 1,8 7 7 9 8,0.4444444444444444,compromise,2.2857142857142856,40.1746458984536,4.76056994605191,84.9795216330899,106.765029572512,0.01,21.422564757233594,192.80308281510236,53.688474337568536,138.05607686803336,1e-4,5.870543082893852
13,58,8,3,1,2,3,3,3.461278849996233,3.83458755000174,0,0,5,1,4.4,1 1 1 1 1,0 0 0 0 0,1 1 1 1 1,0.5,compromise,2.25,40.1746458984536,4.76056994605191,84.9795216330899,106.765029572512,0.01,2.00873229492268,198.86449719734532,8.955287423343417,289.5542933547705,1.0000000000000002e-6,0.72053734731352
13,59,9,3,38,32,20,1,2.9949230499987607,3.91128390000085,0.25,0.24444444444444444,45,0,4.2,9 9 9 9 9,2 0 1 3 5,7 9 8 6 4,0.3333333333333333,compromise,2.2857142857142856,40.1746458984536,4.76056994605191,84.9795216330899,106.765029572512,0.01,81.40574607748766,132.8199014948483,16.995904326617982,67.98361730647193,0.01,1.2673887733426048
13,60,10,3,35,35,37,1,2.2116286499986018,2.84586305000084,0.25,0.2,5,1,5.5,1 1 1 1 1,1 0 0 0 0,0 1 1 1 1,0,stay,2.25,40.1746458984536,4.76056994605191,84.9795216330899,106.765029572512,0.01,70.3056303222938,130.5675991699742,31.442423004243263,53.537098628846636,0.01,0.04177693471409219
13,61,11,3,20,30,37,3,2.429591549998804,3.90532320000057,0.25,0.24444444444444444,45,0,5.8,9 9 9 9 9,3 1 2 3 2,6 8 7 6 7,0.5882352941176471,compromise,2.2857142857142856,40.1746458984536,4.76056994605191,84.9795216330899,106.765029572512,0.01,42.84512951446719,171.38051805786876,110.44854488790214,188.06103589021177,1.0000000000000002e-6,5.457464414737284
13,62,12,3,90,90,88,2,3.8164947499990376,3.59903595000287,0.75,0.8,5,1,4.4,1 1 1 1 1,1 1 1 1 0,0 0 0 0 1,-0,stay,2.25,40.1746458984536,4.76056994605191,84.9795216330899,106.765029572512,0.01,180.7859065430412,20.087322949226795,168.73520506092967,23.00934614467223,1e-4,0.1704480075343922
13,63,13,3,30,40,48,3,5.865817149997383,3.55580284999814,0.375,0.37777777777777777,45,0,5.4,9 9 9 9 9,3 5 3 3 3,6 4 6 6 6,0.5555555555555556,compromise,2.2857142857142856,40.1746458984536,4.76056994605191,84.9795216330899,106.765029572512,0.01,64.26769427170079,149.95795330063515,143.28459877349468,155.22498200461922,1.0000000000000002e-6,5.157704904490173
13,64,14,3,10,14,28,1,6.299203850001504,1.66107040000134,0.125,0.2,5,0,5.9,1 1 1 1 1,1 0 0 0 0,0 1 1 1 1,0.2222222222222222,compromise,2.25,40.1746458984536,4.76056994605191,84.9795216330899,106.765029572512,0.01,20.0873229492268,180.7859065430412,23.794266057265176,61.185255575824726,0.01,2.417427639989548
13,65,15,3,35,42,50,1,2.0282416500012914,4.91548900000089,0.375,0.37777777777777777,45,0,5.7,9 9 9 9 9,1 5 4 2 5,8 4 5 7 4,0.4666666666666667,compromise,2.2857142857142856,40.1746458984536,4.76056994605191,84.9795216330899,106.765029572512,0.01,74.97897665031758,139.24667092201835,42.48976081654495,42.48976081654495,0.01,0.8419780916900204
13,66,16,3,40,35,25,2,3.5742375499994523,4.48906005000208,0.375,0.37777777777777777,45,0,4.5,9 9 9 9 9,5 2 5 3 2,4 7 4 6 7,0.3333333333333333,compromise,2.2857142857142856,40.1746458984536,4.76056994605191,84.9795216330899,106.765029572512,0.01,85.69025902893438,128.53538854340158,47.93613780140048,143.80841340420142,1e-4,2.453975143286867
13,67,17,3,10,13,27,1,3.957549550001204,1.61380975000247,0.25,0.2,5,0,5.3,1 1 1 1 1,0 0 0 0 1,1 1 1 1 0,0.17647058823529413,compromise,2.25,40.1746458984536,4.76056994605191,84.9795216330899,106.765029572512,0.01,20.0873229492268,180.7859065430412,22.944470840934276,62.03505079215563,0.01,2.181217977320649
13,68,18,3,85,80,70,2,2.7909032500010653,3.32537755000158,0.75,0.7555555555555555,45,0,5,9 9 9 9 9,7 5 8 7 7,2 4 1 2 2,0.3333333333333333,compromise,2.2857142857142856,40.1746458984536,4.76056994605191,84.9795216330899,106.765029572512,0.01,182.09180043648556,32.133847135850395,134.22118584392132,57.52336536168058,1e-4,3.410983291780397
13,69,19,3,10,13,25,2,2.007545249998657,2.57341235000058,0.25,0.24444444444444444,45,0,5,9 9 9 9 9,3 3 1 3 1,6 6 8 6 8,0.2,compromise,2.2857142857142856,40.1746458984536,4.76056994605191,84.9795216330899,106.765029572512,0.01,21.422564757233594,192.80308281510236,47.93613780140048,143.80841340420142,1e-4,4.278372183623459
13,70,20,3,90,86,73,2,2.812100450002617,2.64968204999968,0.75,0.8,5,0,4.3,1 1 1 1 1,1 1 1 1 0,0 0 0 0 1,0.2352941176470588,compromise,2.25,40.1746458984536,4.76056994605191,84.9795216330899,106.765029572512,0.01,180.7859065430412,20.087322949226795,139.97352238008938,51.771028825512516,1e-4,5.283682355016398
13,71,21,3,90,83,74,2,1.9300993499982724,3.63877470000079,0.75,0.7555555555555555,45,0,5.4,9 9 9 9 9,7 4 7 7 9,2 5 2 2 0,0.4375,compromise,2.2857142857142856,40.1746458984536,4.76056994605191,84.9795216330899,106.765029572512,0.01,192.80308281510236,21.42256475723359,141.8909678921454,49.8535833134565,1e-4,4.787362430832551
13,72,22,3,90,87,72,1,2.1989931499992963,2.91746059999969,0.75,0.7555555555555555,45,0,4.9,9 9 9 9 9,7 6 8 8 5,2 3 1 1 4,0.16666666666666666,compromise,2.2857142857142856,40.1746458984536,4.76056994605191,84.9795216330899,106.765029572512,0.01,192.80308281510236,21.42256475723359,61.185255575824726,23.794266057265176,0.01,2.377398146774481
13,73,23,3,70,63,55,2,3.11688045000119,2.16245555000205,0.625,0.6,5,0,4.7,1 1 1 1 1,0 1 1 1 0,1 0 0 0 1,0.4666666666666667,compromise,2.25,40.1746458984536,4.76056994605191,84.9795216330899,106.765029572512,0.01,140.6112606445876,60.26196884768041,105.45950316308105,86.28504804252086,1e-4,2.4338662143639906
13,74,24,3,90,87,73,1,3.5158546499988006,2.47979145000318,0.75,0.8,5,0,4.8,1 1 1 1 1,0 1 1 1 1,1 0 0 0 0,0.17647058823529413,compromise,2.25,40.1746458984536,4.76056994605191,84.9795216330899,106.765029572512,0.01,180.7859065430412,20.087322949226795,62.03505079215563,22.944470840934276,0.01,2.181217977320641
13,75,25,3,83,70,66,3,2.790924349998022,2.17144490000101,0.625,0.6222222222222222,45,0,4.7,9 9 9 9 9,7 4 5 5 7,2 5 4 4 2,0.7647058823529411,compromise,2.2857142857142856,40.1746458984536,4.76056994605191,84.9795216330899,106.765029572512,0.01,177.80728748503884,36.418360087297124,197.01632331355518,101.49325746455872,1.0000000000000002e-6,5.895466779025228
14,1,1,1,0,0,1,3,6.111350449999918,73.30158785,0,0,5,1,5.9,1 1 1 1 1,0 0 0 0 0,1 1 1 1 1,0,stay,2.25,100,22.2311600591717,393.475843338164,188.483448098685,0.112879575096391,0,500,7.7044273953553395,762.7383121401787,0.001438288797702391,5.029837270407145
14,2,2,1,50,50,49,2,7.132741850000457,5.66732104999937,0.5,0.4888888888888889,45,1,5.9,9 9 9 9 9,4 6 5 4 3,5 3 4 5 6,-0,stay,2.4285714285714284,100,22.2311600591717,393.475843338164,188.483448098685,0.112879575096391,500.20110133136325,500.20110133136325,285.16005280405597,296.799238632793,0.012741798473941775,0.07232410386215488
