sID,trial_number,trial_number_run,run,estimate1,confidence_rating,estimate2,estimate_peer,confidence_peer,estimate1_rt,confidence_rt,estimate2_rt,true_ratio,seen_ratio,nTotal,filler_trial,ITI,nMushrooms,nBlue,nRed
201,1,1,prac,80,3,80,97,1,12.8727320200001,2.291374260000339,3.11263154000017,0.875,0.8,5,0,1.9,1 1 1 1 1,1 1 1 0 1,0 0 0 1 0
201,2,2,prac,90,2,85,72,2,3.50131691999968,1.7412249600001815,9.42339002000017,0.875,0.8666666666666667,45,0,1.9,9 9 9 9 9,7 8 9 7 8,2 1 0 2 1
201,3,3,prac,40,3,40,55,1,4.26074001999996,1.6988806600002135,7.59771391999993,0.625,0.6,5,0,1.5,1 1 1 1 1,1 1 0 1 0,0 0 1 0 1
201,4,4,prac,80,3,80,11,1,7.05178982000007,1.8496859599995332,5.02266121999992,0.875,0.8,5,1,1.8,1 1 1 1 1,0 1 1 1 1,1 0 0 0 0
201,5,5,prac,95,2,95,95,3,4.9140700199996,1.6876870599994618,4.74787853999987,1,1,45,1,1.5,9 9 9 9 9,9 9 9 9 9,0 0 0 0 0
201,6,6,prac,40,2,40,24,1,6.49678931999961,2.52382716000011,4.65553743999999,0.375,0.37777777777777777,45,0,1.5,9 9 9 9 9,6 4 3 1 3,3 5 6 8 6
201,7,7,prac,15,2,10,1,3,4.3160244200003,1.9383241599998655,2.80700313999932,0.125,0.13333333333333333,45,0,1.8,9 9 9 9 9,1 2 2 1 0,8 7 7 8 9
201,8,8,prac,60,2,65,75,2,8.39703131999977,2.323910860000069,6.69250934000002,0.625,0.6,5,0,1.7,1 1 1 1 1,0 1 1 1 0,1 0 0 0 1
201,9,9,prac,55,2,62,70,2,4.80488981999997,2.3912303600004634,3.95343711999976,0.625,0.6222222222222222,45,0,2,9 9 9 9 9,6 6 5 6 5,3 3 4 3 4
201,10,10,prac,40,2,40,38,2,4.62537591999944,1.738506359999974,2.85178943999972,0.5,0.4,5,1,2,1 1 1 1 1,1 1 0 0 0,0 0 1 1 1
201,11,11,prac,70,2,60,55,3,4.11275621999948,1.987638760000209,9.20955351999964,0.625,0.6222222222222222,45,0,1.6,9 9 9 9 9,4 6 5 7 6,5 3 4 2 3
201,12,12,prac,40,2,33,25,3,4.20970502,2.0906578599997374,7.66474653999967,0.375,0.4,5,0,1.7,1 1 1 1 1,1 0 1 0 0,0 1 0 1 1
201,13,13,prac,60,2,72,77,3,4.35484151999981,1.9763553599996158,3.93941622000011,0.625,0.6,5,0,1.7,1 1 1 1 1,1 1 0 1 0,0 0 1 0 1
201,14,14,prac,20,2,20,2,1,4.38269702000025,1.9383336599998984,2.95983332000014,0.125,0.2,5,0,1.7,1 1 1 1 1,0 0 0 0 1,1 1 1 1 0
201,15,15,prac,60,2,63,77,1,8.6137008200003,1.923915560000296,3.46421271999998,0.625,0.6222222222222222,45,0,1.5,9 9 9 9 9,7 4 4 6 7,2 5 5 3 2
202,1,1,prac,59,2,66,77,1,13.2393644199999,1.714545459999954,10.9757134399999,0.625,0.6,5,0,1.6,1 1 1 1 1,1 0 1 0 1,0 1 0 1 0
202,2,2,prac,45,3,0,27,1,8.39997212000003,1.75322656000003,2.04205093999963,0.375,0.37777777777777777,45,0,1.6,9 9 9 9 9,0 2 6 3 6,9 7 3 6 3
202,3,3,prac,75,3,75,92,1,6.87677942000028,1.4738512599997193,3.43522451999979,0.875,0.8666666666666667,45,0,1.8,9 9 9 9 9,8 9 7 6 9,1 0 2 3 0
202,4,4,prac,75,3,65,60,2,6.77103441999998,1.6359860599998228,3.75359663999961,0.625,0.6,5,0,1.8,1 1 1 1 1,0 1 1 0 1,1 0 0 1 0
202,5,5,prac,80,3,80,95,1,10.8522969200001,2.107530759999918,10.8382523399998,0.875,0.8,5,0,1.8,1 1 1 1 1,1 0 1 1 1,0 1 0 0 0
202,6,6,prac,60,3,65,78,3,10.2330479200002,2.205095060000076,4.22171543999957,0.625,0.6,5,0,1.6,1 1 1 1 1,0 0 1 1 1,1 1 0 0 0
202,7,7,prac,65,2,60,50,2,4.08817881999994,1.8742990600001121,3.49048241999981,0.625,0.6222222222222222,45,0,1.7,9 9 9 9 9,7 4 3 7 7,2 5 6 2 2
202,8,8,prac,100,3,100,98,3,3.0356094199999,2.0140420600000652,2.52534263999996,1,1,45,1,1.7,9 9 9 9 9,9 9 9 9 9,0 0 0 0 0
202,9,9,prac,20,3,20,3,1,10.53065732,1.7556066600000122,3.83845803999975,0.125,0.2,5,0,1.6,1 1 1 1 1,0 0 0 1 0,1 1 1 0 1
202,10,10,prac,40,3,35,23,2,7.16358252000009,2.0580754600000546,2.84623751999993,0.375,0.4,5,0,1.9,1 1 1 1 1,0 1 1 0 0,1 0 0 1 1
202,11,11,prac,80,3,80,80,2,7.38943731999962,1.590698459999885,4.90082413999994,0.875,0.8,5,1,1.8,1 1 1 1 1,1 1 0 1 1,0 0 1 0 0
202,12,12,prac,60,2,68,75,3,6.82184891999987,1.6477097599997705,5.24502002000008,0.625,0.6222222222222222,45,0,1.7,9 9 9 9 9,5 4 8 6 5,4 5 1 3 4
202,13,13,prac,70,2,70,52,1,3.95139862000019,1.9407573600001342,2.96058171999971,0.625,0.6222222222222222,45,0,1.7,9 9 9 9 9,5 4 5 7 7,4 5 4 2 2
202,14,14,prac,20,3,20,3,1,5.86954051999987,2.107413259999703,5.0458840199999,0.125,0.13333333333333333,45,0,1.5,9 9 9 9 9,1 1 3 1 0,8 8 6 8 9
202,15,15,prac,40,2,40,39,1,11.08910732,2.173865459999888,2.52603731999989,0.5,0.4,5,1,2,1 1 1 1 1,0 0 0 1 1,1 1 1 0 0
203,1,1,prac,90,3,85,75,3,15.9589222100003,1.813953830000628,4.08984501999976,0.125,0.2,5,0,1.7,1 1 1 1 1,1 0 0 0 0,0 1 1 1 1
203,2,2,prac,40,2,38,23,1,6.69770590999997,2.9499108300001353,4.86974502000021,0.375,0.4,5,0,1.7,1 1 1 1 1,1 0 1 0 0,0 1 0 1 1
203,3,3,prac,60,2,69,75,2,4.12149821000003,1.490765730000021,9.60300602000007,0.625,0.6,5,0,2,1 1 1 1 1,0 1 1 0 1,1 0 0 1 0
203,4,4,prac,90,2,85,74,1,4.77160370999991,1.0156113300004108,3.85564341999952,0.875,0.8,5,0,1.8,1 1 1 1 1,0 1 1 1 1,1 0 0 0 0
203,5,5,prac,35,1,35,36,2,6.79345391000015,1.5657434299996567,4.02257362,0.5,0.4,5,1,1.7,1 1 1 1 1,0 1 0 1 0,1 0 1 0 1
203,6,6,prac,100,3,99,99,3,3.2097577100003,1.4462463300001218,5.9040847199999,1,1,45,1,1.9,9 9 9 9 9,9 9 9 9 9,0 0 0 0 0
203,7,7,prac,65,2,57,49,1,5.70782501000031,1.6221574300006978,6.42440242000021,0.625,0.6222222222222222,45,0,1.7,9 9 9 9 9,6 5 7 7 3,3 4 2 2 6
203,8,8,prac,70,1,65,55,2,4.06805330999987,1.7410309299998517,5.5455810099993,0.625,0.6222222222222222,45,0,1.8,9 9 9 9 9,6 5 7 5 5,3 4 2 4 4
203,9,9,prac,85,2,10,2,2,5.32165221000014,3.2895215300004566,3.65993861000015,0.125,0.13333333333333333,45,0,1.8,9 9 9 9 9,1 1 1 2 1,8 8 8 7 8
203,10,10,prac,37,1,35,20,1,8.62201750999975,1.5990461300002607,3.38492081000004,0.375,0.37777777777777777,45,0,1.6,9 9 9 9 9,3 4 5 4 1,6 5 4 5 8
203,11,11,prac,64,1,53,48,3,7.83028160999993,1.2411062299997866,2.85720591000018,0.625,0.6,5,0,1.6,1 1 1 1 1,1 0 1 1 0,0 1 0 0 1
203,12,12,prac,84,3,91,99,2,8.14362181000024,1.0158484300000055,4.76666690999991,0.875,0.8666666666666667,45,0,1.5,9 9 9 9 9,8 6 9 9 7,1 3 0 0 2
203,13,13,prac,60,3,65,75,3,4.23478441000043,1.3904136300002392,4.8302764099999,0.625,0.6222222222222222,45,0,1.7,9 9 9 9 9,7 7 3 6 5,2 2 6 3 4
203,14,14,prac,60,1,63,76,1,5.84919261000005,1.6356817299997601,4.70563721999997,0.625,0.6,5,0,1.8,1 1 1 1 1,1 0 0 1 1,0 1 1 0 0
203,15,15,prac,95,3,90,28,1,4.08816031000015,1.6574507299997094,6.77450791000001,0.875,0.8,5,1,1.6,1 1 1 1 1,1 1 1 1 0,0 0 0 0 1
207,1,1,prac,10,3,90,28,1,6.49591825000061,1.6545883499993579,16.8254230499997,0.875,0.8666666666666667,45,0,1.9,9 9 9 9 9,7 7 7 9 9,2 2 2 0 0
207,2,2,prac,80,3,80,97,1,6.02925285000128,1.9973253499993007,4.87374114999966,0.875,0.8,5,0,1.6,1 1 1 1 1,1 0 1 1 1,0 1 0 0 0
207,3,3,prac,100,2,98,98,3,3.24073834999945,5.679832450000504,11.5504290500003,1,1,45,1,1.7,9 9 9 9 9,9 9 9 9 9,0 0 0 0 0
207,4,4,prac,53,2,53,70,1,4.35976604999996,3.624348249999457,3.39073214999917,0.625,0.6222222222222222,45,0,1.6,9 9 9 9 9,7 5 4 5 7,2 4 5 4 2
207,5,5,prac,42,2,38,27,3,9.43298344999948,4.530316850000418,4.41577684999811,0.375,0.37777777777777777,45,0,1.7,9 9 9 9 9,2 5 3 3 4,7 4 6 6 5
207,6,6,prac,21,3,21,5,2,5.45870854999976,1.846475049998844,3.4257943499988,0.125,0.13333333333333333,45,0,2,9 9 9 9 9,2 3 0 0 1,7 6 9 9 8
207,7,7,prac,40,3,40,23,2,9.54970864999905,2.3538401499999964,2.90002184999958,0.375,0.4,5,0,1.6,1 1 1 1 1,1 0 1 0 0,0 1 0 1 1
207,8,8,prac,60,2,60,75,1,7.97191414999998,3.555860450000182,3.96279274999779,0.625,0.6,5,0,1.6,1 1 1 1 1,0 1 1 0 1,1 0 0 1 0
207,9,9,prac,50,3,57,66,3,4.70433624999987,1.8801980499993078,3.90549984999961,0.625,0.6222222222222222,45,0,1.8,9 9 9 9 9,6 5 7 5 5,3 4 2 4 4
207,10,10,prac,40,2,46,82,1,6.06835675000002,1.9994237500004601,5.96939395000027,0.5,0.4,5,1,1.7,1 1 1 1 1,0 1 1 0 0,1 0 0 1 1
207,11,11,prac,80,2,80,80,1,4.78768434999984,2.1713233499995113,5.00808744999904,0.875,0.8,5,1,1.6,1 1 1 1 1,0 1 1 1 1,1 0 0 0 0
207,12,12,prac,20,2,18,4,3,3.52972884999963,1.7332468500007963,3.24229285000001,0.125,0.2,5,0,1.6,1 1 1 1 1,1 0 0 0 0,0 1 1 1 1
207,13,13,prac,56,2,62,74,2,4.7931429500004,1.7407672500012268,3.01151064999976,0.625,0.6222222222222222,45,0,1.8,9 9 9 9 9,5 6 5 6 6,4 3 4 3 3
207,14,14,prac,60,2,71,75,3,5.62163264999981,2.1971718499999042,4.45778844999859,0.625,0.6,5,0,2,1 1 1 1 1,1 1 0 1 0,0 0 1 0 1
207,15,15,prac,60,2,63,76,2,6.10598395000034,2.3612991499994678,2.65312324999923,0.625,0.6,5,0,1.9,1 1 1 1 1,0 1 0 1 1,1 0 1 0 0
210,1,1,prac,39,1,60,55,1,18.3685539799999,9.895530739999685,15.0817578800002,0.625,0.6,5,0,1.6,1 1 1 1 1,0 1 1 1 0,1 0 0 0 1
210,2,2,prac,40,3,40,24,3,6.27464468000016,1.4623538399996505,6.43081327999971,0.375,0.4,5,0,1.5,1 1 1 1 1,0 0 1 1 0,1 1 0 0 1
210,3,3,prac,20,3,20,4,2,5.99673867999991,1.1242315399999825,6.83647077999967,0.125,0.2,5,0,1.8,1 1 1 1 1,0 1 0 0 0,1 0 1 1 1
210,4,4,prac,90,2,88,72,3,13.7859175799999,2.38250724000045,8.95968538000034,0.875,0.8666666666666667,45,0,2,9 9 9 9 9,9 8 6 7 9,0 1 3 2 0
210,5,5,prac,80,3,80,22,1,7.05518507999977,1.699540540000271,6.26108327999964,0.875,0.8,5,1,1.8,1 1 1 1 1,1 1 1 1 0,0 0 0 0 1
210,6,6,prac,80,3,80,95,1,9.86655537999968,1.896339540000099,6.41914757999984,0.875,0.8,5,0,1.7,1 1 1 1 1,1 1 0 1 1,0 0 1 0 0
210,7,7,prac,40,3,40,39,1,7.91354758000034,1.299774940000134,7.25637027999937,0.5,0.4,5,1,1.8,1 1 1 1 1,0 0 0 1 1,1 1 1 0 0
210,8,8,prac,60,3,60,75,3,8.94710587999998,3.6803410400002576,4.96125097999993,0.625,0.6,5,0,1.6,1 1 1 1 1,0 1 1 0 1,1 0 0 1 0
210,9,9,prac,65,2,65,50,1,16.8948109799999,2.2575691399997595,7.84582167999997,0.625,0.6222222222222222,45,0,1.8,9 9 9 9 9,5 6 7 7 3,4 3 2 2 6
210,10,10,prac,63,2,63,80,3,6.30779938000023,1.3689272399997208,5.63034968000011,0.625,0.6222222222222222,45,0,1.7,9 9 9 9 9,3 6 7 7 5,6 3 2 2 4
210,11,11,prac,23,1,23,5,1,11.65580808,1.9384815399998843,4.36797617999946,0.125,0.13333333333333333,45,0,1.6,9 9 9 9 9,1 2 0 2 1,8 7 9 7 8
210,12,12,prac,49,2,49,66,2,11.61415218,2.6909444399998392,11.2709692799995,0.625,0.6222222222222222,45,0,1.9,9 9 9 9 9,5 5 6 5 7,4 4 3 4 2
210,13,13,prac,39,2,39,24,1,13.5974494799998,3.372112539999762,5.16449358,0.375,0.37777777777777777,45,0,1.8,9 9 9 9 9,4 2 4 3 4,5 7 5 6 5
210,14,14,prac,100,3,100,99,3,3.85968248000017,1.3905901399998584,3.19550207999964,1,1,45,1,1.7,9 9 9 9 9,9 9 9 9 9,0 0 0 0 0
210,15,15,prac,60,3,60,77,2,14.8672656799999,1.7709255400000075,5.62989118000041,0.625,0.6,5,0,1.8,1 1 1 1 1,1 1 0 1 0,0 0 1 0 1
215,1,1,prac,75,2,75,58,1,8.28217951000033,2.44029060999992,7.47676936000062,0.625,0.6222222222222222,45,0,1.8,9 9 9 9 9,5 6 6 6 5,4 3 3 3 4
215,2,2,prac,80,3,80,96,2,6.73562601000094,1.8725571100003435,9.1569106600009,0.875,0.8,5,0,1.8,1 1 1 1 1,0 1 1 1 1,1 0 0 0 0
215,3,3,prac,40,3,40,23,1,6.0823664100003,2.360910209999929,5.0931350599999,0.375,0.4,5,0,1.8,1 1 1 1 1,1 0 0 1 0,0 1 1 0 1
215,4,4,prac,80,3,80,19,1,3.50238221000018,2.1905942100001994,8.71017815999994,0.875,0.8,5,1,1.6,1 1 1 1 1,1 0 1 1 1,0 1 0 0 0
215,5,5,prac,20,3,20,3,1,12.26884991,2.0863235100000566,5.09012626000049,0.125,0.2,5,0,2,1 1 1 1 1,0 1 0 0 0,1 0 1 1 1
215,6,6,prac,65,2,65,50,3,7.8856180100006,2.473172110000178,3.34048046000044,0.625,0.6222222222222222,45,0,1.9,9 9 9 9 9,6 4 5 6 7,3 5 4 3 2
215,7,7,prac,100,3,100,99,3,3.43244481000011,2.7743000100003883,3.54953626000042,1,1,45,1,1.9,9 9 9 9 9,9 9 9 9 9,0 0 0 0 0
215,8,8,prac,55,2,55,70,2,7.9022800100006,2.855880309999975,5.29144906000056,0.625,0.6222222222222222,45,0,1.9,9 9 9 9 9,7 5 3 6 7,2 4 6 3 2
215,9,9,prac,15,2,15,1,2,10.2688868099999,1.9382826100004422,3.84519616000034,0.125,0.13333333333333333,45,0,1.6,9 9 9 9 9,1 1 0 3 1,8 8 9 6 8
215,10,10,prac,60,3,60,75,1,5.61577191000015,1.9910141099999237,5.49626266000041,0.625,0.6,5,0,2,1 1 1 1 1,1 1 1 0 0,0 0 0 1 1
215,11,11,prac,35,3,35,50,3,5.18565751000051,3.623920310000358,4.18689876000053,0.375,0.37777777777777777,45,0,1.8,9 9 9 9 9,3 3 2 4 5,6 6 7 5 4
215,12,12,prac,40,3,40,40,3,8.01562461000003,2.927512210000714,4.33516435999991,0.5,0.4,5,1,1.8,1 1 1 1 1,0 0 1 0 1,1 1 0 1 0
215,13,13,prac,60,3,60,75,2,5.66900200999999,2.2231268100003945,4.0462427600005,0.625,0.6,5,0,1.9,1 1 1 1 1,0 1 1 1 0,1 0 0 0 1
215,14,14,prac,60,3,60,75,3,4.28567481000027,2.2898630099998627,9.8115220600007,0.625,0.6,5,0,1.9,1 1 1 1 1,1 0 1 0 1,0 1 0 1 0
215,15,15,prac,83,2,83,99,3,7.6516846100003,4.089039710000634,4.89746596000032,0.875,0.8666666666666667,45,0,1.5,9 9 9 9 9,9 5 9 8 8,0 4 0 1 1
216,1,1,prac,40,3,40,40,1,5.72166428999981,1.9486742699996285,3.97582029000023,0.5,0.4,5,1,1.7,1 1 1 1 1,1 1 0 0 0,0 0 1 1 1
216,2,2,prac,40,2,40,25,2,5.96430078999992,2.425239669999428,2.00455338999973,0.375,0.4,5,0,1.9,1 1 1 1 1,1 0 1 0 0,0 1 0 1 1
216,3,3,prac,100,3,100,98,3,2.52069179,1.296422469999925,2.27578138999979,1,1,45,1,1.7,9 9 9 9 9,9 9 9 9 9,0 0 0 0 0
216,4,4,prac,60,2,59,76,3,8.98876689000008,2.282790869999644,6.71622668999998,0.625,0.6222222222222222,45,0,1.8,9 9 9 9 9,6 5 5 6 6,3 4 4 3 3
216,5,5,prac,40,2,40,55,2,7.44688749000034,2.5649129699991136,3.19920268999977,0.625,0.6,5,0,1.6,1 1 1 1 1,1 0 1 1 0,0 1 0 0 1
216,6,6,prac,80,3,80,97,1,4.88481819000026,1.5249754699998448,5.01472768999975,0.875,0.8,5,0,1.9,1 1 1 1 1,1 1 1 1 0,0 0 0 0 1
216,7,7,prac,15,2,15,1,3,7.53513769000028,2.0993575699999383,2.98994789000017,0.125,0.13333333333333333,45,0,1.5,9 9 9 9 9,1 2 1 0 2,8 7 8 9 7
216,8,8,prac,80,2,76,64,1,8.01856508999981,1.9237280699999246,3.48389328999974,0.625,0.6222222222222222,45,0,1.6,9 9 9 9 9,1 7 8 7 5,8 2 1 2 4
216,9,9,prac,66,1,67,50,1,6.28101088999983,1.9492910699996173,5.0235328900003,0.625,0.6,5,0,1.7,1 1 1 1 1,1 0 0 1 1,0 1 1 0 0
216,10,10,prac,60,3,60,75,3,8.58872519000033,2.4078150699997423,9.91864578999957,0.625,0.6,5,0,1.8,1 1 1 1 1,1 0 1 1 0,0 1 0 0 1
216,11,11,prac,20,3,20,3,3,6.5409635900005,1.5719693700002608,2.39507039,0.125,0.2,5,0,1.8,1 1 1 1 1,0 0 1 0 0,1 1 0 1 1
216,12,12,prac,80,3,80,11,1,7.50178739000057,2.441038269999808,7.11489888999995,0.875,0.8,5,1,1.7,1 1 1 1 1,1 1 1 1 0,0 0 0 0 1
216,13,13,prac,50,1,59,65,2,5.84749758999988,1.3827278699991439,4.33226808999962,0.625,0.6222222222222222,45,0,1.7,9 9 9 9 9,6 5 4 8 5,3 4 5 1 4
216,14,14,prac,88,2,88,70,1,3.11792459000026,1.607648270000027,3.05109678999997,0.875,0.8666666666666667,45,0,1.6,9 9 9 9 9,7 7 8 8 9,2 2 1 1 0
216,15,15,prac,44,2,40,27,1,5.05155148999984,2.2908260700000938,5.40316308999991,0.375,0.37777777777777777,45,0,1.9,9 9 9 9 9,3 1 2 7 4,6 8 7 2 5
218,1,1,prac,60,3,68,76,3,8.97210684000038,4.264942320000046,15.7136740400001,0.625,0.6,5,0,2,1 1 1 1 1,0 1 1 1 0,1 0 0 0 1
218,2,2,prac,83,2,91,99,3,9.41300614000011,2.605106020000676,9.32819034000022,0.875,0.8666666666666667,45,0,1.8,9 9 9 9 9,7 9 8 7 8,2 0 1 2 1
218,3,3,prac,40,2,30,24,3,11.4106018400016,3.1581014200000936,15.6598194400012,0.375,0.4,5,0,1.5,1 1 1 1 1,0 0 0 1 1,1 1 1 0 0
218,4,4,prac,25,2,30,40,2,11.1299194400008,2.880163519999769,3.81890294000004,0.375,0.37777777777777777,45,0,1.6,9 9 9 9 9,2 4 3 5 3,7 5 6 4 6
218,5,5,prac,65,2,60,50,2,15.2121478400004,2.3999137200016776,4.52421754000079,0.625,0.6,5,0,1.6,1 1 1 1 1,1 0 1 1 0,0 1 0 0 1
218,6,6,prac,40,3,40,41,1,9.30832594000003,2.7463576200007083,4.9177842400004,0.5,0.4,5,1,1.8,1 1 1 1 1,1 0 1 0 0,0 1 0 1 1
218,7,7,prac,50,1,55,66,1,6.12666464000085,3.189459920000445,4.51729834000071,0.625,0.6222222222222222,45,0,1.5,9 9 9 9 9,6 3 8 5 6,3 6 1 4 3
218,8,8,prac,76,2,70,58,2,10.4689554400002,2.0145055200009665,6.28559993999988,0.625,0.6222222222222222,45,0,1.5,9 9 9 9 9,6 6 6 5 5,3 3 3 4 4
218,9,9,prac,20,3,15,3,2,6.01624884000012,1.7964928199999122,8.74048244000096,0.125,0.2,5,0,1.7,1 1 1 1 1,0 1 0 0 0,1 0 1 1 1
218,10,10,prac,86,3,90,99,2,5.70753524000065,2.647124120000626,3.91703884000071,0.875,0.8,5,0,1.5,1 1 1 1 1,1 1 0 1 1,0 0 1 0 0
218,11,11,prac,65,2,60,50,3,4.60432154000046,1.5294595200002732,6.33929784000156,0.625,0.6222222222222222,45,0,1.6,9 9 9 9 9,3 5 7 8 5,6 4 2 1 4
218,12,12,prac,10,3,15,26,2,5.22992624000108,2.266646920000312,4.83081624000079,0.125,0.13333333333333333,45,0,1.9,9 9 9 9 9,2 2 1 1 0,7 7 8 8 9
218,13,13,prac,95,3,97,97,3,6.76641004000066,3.4299774199998865,7.23195054000098,0.875,0.8,5,1,1.8,1 1 1 1 1,1 1 0 1 1,0 0 1 0 0
218,14,14,prac,60,3,62,77,1,7.12181473999954,3.890941220000059,5.1594777399996,0.625,0.6,5,0,1.7,1 1 1 1 1,1 1 0 1 0,0 0 1 0 1
218,15,15,prac,100,3,99,99,3,7.74346484000034,3.824744720000126,3.06379154000115,1,1,45,1,1.7,9 9 9 9 9,9 9 9 9 9,0 0 0 0 0
219,1,1,prac,20,3,19,18,2,5.02162001000033,1.8714633300005517,7.68476000999999,0.875,0.8,5,1,1.6,1 1 1 1 1,1 1 1 0 1,0 0 0 1 0
219,2,2,prac,10,3,20,25,3,6.84632850999969,1.9211213300004601,6.75816511999983,0.125,0.13333333333333333,45,0,1.8,9 9 9 9 9,0 1 2 1 2,9 8 7 8 7
219,3,3,prac,90,2,85,73,2,7.90532411000004,1.6892542300001878,11.3693612199995,0.875,0.8,5,0,1.8,1 1 1 1 1,1 1 1 1 0,0 0 0 0 1
219,4,4,prac,60,2,74,78,3,4.68246540999917,1.2553107299991098,9.61402480999914,0.625,0.6222222222222222,45,0,1.6,9 9 9 9 9,5 4 7 7 5,4 5 2 2 4
219,5,5,prac,27,2,24,12,2,11.2807035099995,1.9154779299997244,4.61780141000145,0.125,0.2,5,0,1.9,1 1 1 1 1,0 0 1 0 0,1 1 0 1 1
219,6,6,prac,50,2,44,33,3,4.31263330999991,1.4043192299996008,7.85311851999995,0.375,0.37777777777777777,45,0,1.8,9 9 9 9 9,4 6 2 4 1,5 3 7 5 8
219,7,7,prac,38,1,54,54,2,3.43018980999932,7.447344730000623,9.64702291000049,0.625,0.6222222222222222,45,0,1.7,9 9 9 9 9,5 2 8 7 6,4 7 1 2 3
219,8,8,prac,60,2,64,75,2,12.6254170100001,1.8535985299995446,4.50513481999951,0.625,0.6,5,0,1.7,1 1 1 1 1,1 1 1 0 0,0 0 0 1 1
219,9,9,prac,40,2,40,39,2,10.2973055100001,1.3470001300001968,4.07362761000149,0.5,0.4,5,1,1.7,1 1 1 1 1,1 1 0 0 0,0 0 1 1 1
219,10,10,prac,95,3,96,97,3,5.87455451000005,1.9293938299997535,9.00964581999961,1,1,45,1,1.5,9 9 9 9 9,9 9 9 9 9,0 0 0 0 0
219,11,11,prac,60,2,67,75,3,13.4889043099993,1.6788927299994612,9.17595152000013,0.625,0.6,5,0,1.6,1 1 1 1 1,1 0 1 0 1,0 1 0 1 0
219,12,12,prac,40,2,32,23,2,11.2218510100001,1.4297554300010233,3.63346750999972,0.375,0.4,5,0,1.6,1 1 1 1 1,1 0 0 0 1,0 1 1 1 0
219,13,13,prac,70,2,70,54,1,7.00529221000033,2.8550292299996727,3.70576892000008,0.625,0.6222222222222222,45,0,1.6,9 9 9 9 9,7 7 3 5 6,2 2 6 4 3
219,14,14,prac,88,3,88,72,1,12.0200949099999,1.6572341300006883,5.57806660999995,0.875,0.8666666666666667,45,0,1.6,9 9 9 9 9,8 7 8 8 8,1 2 1 1 1
219,15,15,prac,60,2,60,75,1,7.31450941000003,1.2154929300013464,5.97523681000075,0.625,0.6,5,0,1.5,1 1 1 1 1,1 1 0 0 1,0 0 1 1 0
221,1,1,prac,40,3,60,82,1,8.47171359999948,1.5617544000001544,6.55185290000009,0.5,0.4,5,1,1.9,1 1 1 1 1,0 0 0 1 1,1 1 1 0 0
221,2,2,prac,60,2,43,43,3,7.10482319999983,2.32069010000032,17.6783287000003,0.375,0.37777777777777777,45,0,1.8,9 9 9 9 9,3 5 3 3 3,6 4 6 6 6
221,3,3,prac,40,3,40,24,2,14.8528211000003,1.908003799999733,4.30717820000018,0.375,0.4,5,0,1.9,1 1 1 1 1,0 1 0 1 0,1 0 1 0 1
221,4,4,prac,20,3,20,3,3,9.57713759999979,1.4970115999999507,3.96538710000004,0.125,0.2,5,0,1.6,1 1 1 1 1,0 1 0 0 0,1 0 1 1 1
221,5,5,prac,80,3,80,28,1,11.6700678000002,1.6805230999998457,4.53438970000025,0.875,0.8,5,1,1.6,1 1 1 1 1,1 1 1 0 1,0 0 0 1 0
221,6,6,prac,90,3,80,74,3,5.36327990000018,1.46333980000054,9.41034530000024,0.875,0.8666666666666667,45,0,1.6,9 9 9 9 9,9 7 5 9 9,0 2 4 0 0
221,7,7,prac,100,3,100,98,3,2.76294569999982,1.3477468999999473,8.95868770000016,1,1,45,1,1.7,9 9 9 9 9,9 9 9 9 9,0 0 0 0 0
221,8,8,prac,60,3,67,78,2,6.06832510000004,2.0483742999999777,7.48580230000016,0.625,0.6222222222222222,45,0,1.5,9 9 9 9 9,6 5 4 5 8,3 4 5 4 1
221,9,9,prac,60,2,70,75,3,9.27212250000002,2.114653399999952,4.39927720000014,0.625,0.6222222222222222,45,0,1.6,9 9 9 9 9,4 7 4 6 7,5 2 5 3 2
221,10,10,prac,60,3,60,75,2,9.36879409999983,2.072274500000276,5.35371719999966,0.625,0.6,5,0,1.6,1 1 1 1 1,1 0 0 1 1,0 1 1 0 0
221,11,11,prac,60,3,60,75,1,6.55516530000023,1.9739125000005515,5.24243179999985,0.625,0.6,5,0,1.6,1 1 1 1 1,0 1 1 1 0,1 0 0 0 1
221,12,12,prac,20,3,15,4,1,5.48788240000022,1.646057899999505,3.92601220000006,0.125,0.13333333333333333,45,0,1.7,9 9 9 9 9,2 1 0 2 1,7 8 9 7 8
221,13,13,prac,70,3,70,55,1,7.5435580000003,1.913583799999742,6.87561880000021,0.625,0.6222222222222222,45,0,1.5,9 9 9 9 9,6 6 7 6 3,3 3 2 3 6
221,14,14,prac,80,3,80,95,1,11.5429251999999,1.7294517999998789,3.93109430000004,0.875,0.8,5,0,1.8,1 1 1 1 1,1 1 0 1 1,0 0 1 0 0
221,15,15,prac,60,3,60,76,3,10.3198554000001,1.8407641999997395,6.0718624000001,0.625,0.6,5,0,1.8,1 1 1 1 1,1 1 1 0 0,0 0 0 1 1
223,1,1,prac,15,1,15,1,2,9.60553392999918,2.6812011899996833,4.433924829999796,0.125,0.13333333333333333,45,0,1.9,9 9 9 9 9,2 2 0 1 1,7 7 9 8 8
223,2,2,prac,90,1,81,72,2,10.3223497300005,2.790778489999866,[],0.875,0.8666666666666667,45,0,1.9,9 9 9 9 9,9 8 9 6 7,0 1 0 3 2
223,3,3,prac,95,1,95,95,3,9.67289922999998,2.341673290000017,6.267898029999742,1,1,45,1,1.6,9 9 9 9 9,9 9 9 9 9,0 0 0 0 0
223,4,4,prac,75,2,65,58,2,9.49659752999969,1.8468130900000688,11.802139030000035,0.625,0.6222222222222222,45,0,1.6,9 9 9 9 9,5 4 7 7 5,4 5 2 2 4
223,5,5,prac,37,2,30,20,3,7.50490382999942,1.764051390000077,5.153433230000246,0.375,0.37777777777777777,45,0,1.9,9 9 9 9 9,5 4 2 3 3,4 5 7 6 6
223,6,6,prac,60,2,65,75,1,17.3198437299998,2.2744468900000356,6.181285229999958,0.625,0.6222222222222222,45,0,2,9 9 9 9 9,6 5 5 5 7,3 4 4 4 2
223,7,7,prac,40,2,40,40,1,4.98248082999999,1.8966524900001787,3.3372485299996697,0.5,0.4,5,1,1.9,1 1 1 1 1,0 1 1 0 0,1 0 0 1 1
223,8,8,prac,60,2,68,75,2,5.87099423000018,1.7385191899998063,5.016367730000184,0.625,0.6,5,0,1.9,1 1 1 1 1,1 1 0 1 0,0 0 1 0 1
223,9,9,prac,60,2,65,76,1,8.7471179299996,2.449274289999721,9.562458829999741,0.625,0.6,5,0,2,1 1 1 1 1,0 1 1 0 1,1 0 0 1 0
223,10,10,prac,40,2,30,23,2,5.69670952999968,1.7573254899998574,8.114292729999761,0.375,0.4,5,0,1.9,1 1 1 1 1,0 1 0 1 0,1 0 1 0 1
223,11,11,prac,80,3,55,30,1,4.71813492999991,1.1573173899996618,18.5308162299998,0.875,0.8,5,1,1.5,1 1 1 1 1,1 1 1 1 0,0 0 0 0 1
223,12,12,prac,20,3,20,5,1,8.64369712999996,1.8555154900000161,9.962731930000245,0.125,0.2,5,0,1.7,1 1 1 1 1,0 0 0 1 0,1 1 1 0 1
223,13,13,prac,60,2,67,77,3,7.01354592999996,2.94158539,10.06374353000001,0.625,0.6,5,0,1.6,1 1 1 1 1,0 1 0 1 1,1 0 1 0 0
223,14,14,prac,80,3,80,97,2,9.4187928299998,3.349519490000148,11.456052829999862,0.875,0.8,5,0,1.7,1 1 1 1 1,1 1 1 1 0,0 0 0 0 1
223,15,15,prac,58,1,68,75,3,5.19942352999988,2.2882184900004177,8.387868329999947,0.625,0.6222222222222222,45,0,1.7,9 9 9 9 9,4 3 6 7 8,5 6 3 2 1
225,1,1,prac,29,NA,0,84,1,[],NA,[],0.625,0.6222222222222222,45,0,1.7,9 9 9 9 9,6 6 6 5 5,3 3 3 4 4
225,2,2,prac,80,3,85,95,3,8.565607460000138,2.4757582600000205,7.131058260000032,0.875,0.8,5,0,1.7,1 1 1 1 1,1 1 1 0 1,0 0 0 1 0
225,3,3,prac,80,NA,0,84,2,[],NA,[],0.875,0.8666666666666667,45,0,1.7,9 9 9 9 9,8 8 6 9 8,1 1 3 0 1
225,4,4,prac,40,3,40,24,1,7.949084160000211,2.760550460000104,4.129839460000085,0.375,0.4,5,0,1.6,1 1 1 1 1,0 1 1 0 0,1 0 0 1 1
225,5,5,prac,30,2,30,47,1,7.669087859999763,2.590175759999738,4.221585700000105,0.375,0.37777777777777777,45,0,1.7,9 9 9 9 9,5 3 3 3 3,4 6 6 6 6
225,6,6,prac,60,2,65,75,3,9.002337759999818,1.6225555599999097,8.744516360000034,0.625,0.6222222222222222,45,0,2,9 9 9 9 9,7 6 5 5 5,2 3 4 4 4
225,7,7,prac,60,3,60,76,1,6.015697459999728,2.444243959999767,3.53030646000002,0.625,0.6,5,0,1.6,1 1 1 1 1,1 1 0 1 0,0 0 1 0 1
225,8,8,prac,60,3,65,75,2,2.6991856599997845,2.3273703600000317,4.459282659999872,0.625,0.6,5,0,1.8,1 1 1 1 1,1 0 0 1 1,0 1 1 0 0
225,9,9,prac,23,NA,0,2,1,[],NA,[],0.125,0.13333333333333333,45,0,1.7,9 9 9 9 9,0 3 2 1 0,9 6 7 8 9
225,10,10,prac,20,3,13,5,3,6.882337460000144,1.7603842599999098,8.60491399999978,0.125,0.2,5,0,1.5,1 1 1 1 1,1 0 0 0 0,0 1 1 1 1
225,11,11,prac,68,2,63,50,2,12.498978160000433,2.276728359999879,6.565546959999892,0.625,0.6222222222222222,45,0,1.8,9 9 9 9 9,4 9 3 5 7,5 0 6 4 2
225,12,12,prac,80,3,80,80,2,6.732326960000137,2.4268072600000323,3.9705986000001303,0.875,0.8,5,1,1.6,1 1 1 1 1,1 1 1 0 1,0 0 0 1 0
225,13,13,prac,40,3,40,40,2,13.282281059999832,2.176256160000321,3.6665316599999187,0.5,0.4,5,1,1.6,1 1 1 1 1,0 1 1 0 0,1 0 0 1 1
225,14,14,prac,2,NA,0,82,3,[],NA,[],0.625,0.6,5,0,1.9,1 1 1 1 1,1 0 0 1 1,0 1 1 0 0
225,15,15,prac,100,3,100,98,3,2.349144160000151,2.1439595599997574,2.631745260000116,1,1,45,1,1.8,9 9 9 9 9,9 9 9 9 9,0 0 0 0 0
226,1,1,prac,40,2,45,55,1,9.52225444000032,2.7726164199998493,10.6897061799996,0.625,0.6222222222222222,45,0,1.6,9 9 9 9 9,6 5 4 7 6,3 4 5 2 3
226,2,2,prac,85,3,85,33,1,10.6973636399998,2.0576837200001137,4.86573363999969,0.875,0.8,5,1,1.8,1 1 1 1 1,0 1 1 1 1,1 0 0 0 0
226,3,3,prac,60,3,65,76,3,5.73252664000029,1.8637483200000133,5.67278334000002,0.625,0.6,5,0,1.9,1 1 1 1 1,0 1 1 0 1,1 0 0 1 0
226,4,4,prac,45,2,40,30,2,9.87719333999985,1.741307820000202,7.52671294000038,0.375,0.37777777777777777,45,0,2,9 9 9 9 9,2 4 3 4 4,7 5 6 5 5
226,5,5,prac,65,2,65,48,2,8.33533724000017,3.406747120000091,5.63527984000029,0.625,0.6222222222222222,45,0,1.8,9 9 9 9 9,5 6 3 7 7,4 3 6 2 2
226,6,6,prac,80,3,80,62,3,10.1188400400001,2.266282520000459,5.93634064000025,0.625,0.6222222222222222,45,0,1.6,9 9 9 9 9,7 7 2 4 8,2 2 7 5 1
226,7,7,prac,40,2,35,25,2,13.2069089400002,2.0744502200004717,7.23485454000001,0.375,0.4,5,0,1.7,1 1 1 1 1,1 0 0 1 0,0 1 1 0 1
226,8,8,prac,80,3,80,63,2,11.4882432399995,2.9469474200004697,4.15461327999992,0.125,0.2,5,0,1.7,1 1 1 1 1,0 0 0 0 1,1 1 1 1 0
226,9,9,prac,10,2,14,25,1,9.84657944000037,2.264982879999934,4.86208564000071,0.125,0.13333333333333333,45,0,1.9,9 9 9 9 9,1 2 2 1 0,8 7 7 8 9
226,10,10,prac,100,3,100,99,3,4.36817964000011,1.7492386199996872,7.57110234000038,1,1,45,1,1.8,9 9 9 9 9,9 9 9 9 9,0 0 0 0 0
226,11,11,prac,85,2,88,99,3,5.08492164000018,1.8059624200000144,7.8415350399996,0.875,0.8666666666666667,45,0,1.9,9 9 9 9 9,7 8 7 8 9,2 1 2 1 0
226,12,12,prac,80,3,80,97,2,3.53470324,1.540965920000417,6.27429724000058,0.875,0.8,5,0,1.6,1 1 1 1 1,1 1 1 1 0,0 0 0 0 1
226,13,13,prac,80,3,80,65,2,10.2639942399996,1.6890670200000386,2.90484103999961,0.625,0.6,5,0,1.6,1 1 1 1 1,0 0 1 1 1,1 1 0 0 0
226,14,14,prac,20,3,20,19,2,4.09861314,2.064133920000131,8.14233134000051,0.5,0.4,5,1,1.7,1 1 1 1 1,1 0 0 1 0,0 1 1 0 1
226,15,15,prac,60,3,60,76,1,7.78036943999996,1.77435142000013,2.8368743799997,0.625,0.6,5,0,1.9,1 1 1 1 1,0 1 1 1 0,1 0 0 0 1
229,1,1,prac,60,3,60,75,3,9.23557644999983,1.9128545500002474,5.52610875000028,0.625,0.6,5,0,2,1 1 1 1 1,1 1 0 0 1,0 0 1 1 0
229,2,2,prac,42,2,42,24,3,13.6526992499998,1.8840382499997759,10.24432445,0.375,0.37777777777777777,45,0,1.9,9 9 9 9 9,2 4 3 3 5,7 5 6 6 4
229,3,3,prac,58,3,58,76,1,7.48028264999994,2.190671949999796,3.79781275000005,0.625,0.6222222222222222,45,0,1.8,9 9 9 9 9,6 7 4 4 7,3 2 5 5 2
229,4,4,prac,49,1,56,67,2,5.64329464999992,1.3494904499998484,5.33781334999958,0.625,0.6,5,0,1.6,1 1 1 1 1,1 0 0 1 1,0 1 1 0 0
229,5,5,prac,57,2,57,72,3,10.6465344500002,2.321604550000302,5.55907045000004,0.625,0.6222222222222222,45,0,1.9,9 9 9 9 9,5 6 7 6 4,4 3 2 3 5
229,6,6,prac,56,2,56,74,2,6.83842894999998,2.3582039500001883,3.17252305000056,0.625,0.6222222222222222,45,0,1.5,9 9 9 9 9,5 4 4 7 8,4 5 5 2 1
229,7,7,prac,80,3,80,80,2,7.57193005000045,1.7999287500001628,4.05768474999968,0.875,0.8,5,1,1.6,1 1 1 1 1,1 1 1 0 1,0 0 0 1 0
229,8,8,prac,60,3,61,76,1,7.16013855000028,1.9491399499997897,4.56753065000066,0.625,0.6,5,0,1.7,1 1 1 1 1,1 1 0 1 0,0 0 1 0 1
229,9,9,prac,16,3,8,1,3,8.49652524999965,2.172048349999841,3.2848105500002,0.125,0.13333333333333333,45,0,1.6,9 9 9 9 9,2 0 2 0 2,7 9 7 9 7
229,10,10,prac,1,3,99,80,3,3.65135465000003,2.3254368999996586,4.96928475000004,1,1,45,1,1.7,9 9 9 9 9,9 9 9 9 9,0 0 0 0 0
229,11,11,prac,40,2,39,24,3,5.42998555000031,2.0594049500000438,3.26864754999997,0.375,0.4,5,0,1.7,1 1 1 1 1,1 0 1 0 0,0 1 0 1 1
229,12,12,prac,37,2,36,36,2,5.94631395000033,1.9967319499996847,5.67047945000013,0.5,0.4,5,1,1.8,1 1 1 1 1,1 0 1 0 0,0 1 0 1 1
229,13,13,prac,60,1,56,45,2,4.4321694500004,2.1731072499997026,3.32452234999982,0.125,0.2,5,0,1.6,1 1 1 1 1,0 0 1 0 0,1 1 0 1 1
229,14,14,prac,90,3,90,75,3,5.9655366500001,2.1550953500000105,3.77402604999997,0.875,0.8,5,0,1.5,1 1 1 1 1,1 1 0 1 1,0 0 1 0 0
229,15,15,prac,80,2,80,95,1,3.55909405000011,1.8413905499996872,4.3943953500002,0.875,0.8666666666666667,45,0,1.6,9 9 9 9 9,8 7 6 9 9,1 2 3 0 0
232,1,1,prac,40,2,35,25,1,15.554277089999914,3.7232244699998773,10.577027390000012,0.375,0.4,5,0,1.8,1 1 1 1 1,1 1 0 0 0,0 0 1 1 1
232,2,2,prac,60,2,66,78,2,9.613841790000151,1.89889117000007,10.05149978999998,0.625,0.6,5,0,1.7,1 1 1 1 1,1 1 0 0 1,0 0 1 1 0
232,3,3,prac,80,2,75,64,1,13.247624389999828,1.751285770000095,9.558917489999885,0.625,0.6222222222222222,45,0,1.5,9 9 9 9 9,8 5 5 5 5,1 4 4 4 4
232,4,4,prac,60,2,70,75,2,8.763635189999832,1.9833267700003034,6.756365099999812,0.625,0.6222222222222222,45,0,1.7,9 9 9 9 9,5 6 7 6 4,4 3 2 3 5
232,5,5,prac,19,2,5,3,2,16.177964789999805,2.8081218699999226,4.254650090000041,0.125,0.13333333333333333,45,0,1.6,9 9 9 9 9,1 1 1 3 0,8 8 8 6 9
232,6,6,prac,40,1,30,22,2,19.231782189999876,1.7247530700001334,9.621614690000115,0.375,0.37777777777777777,45,0,1.5,9 9 9 9 9,4 0 4 3 6,5 9 5 6 3
232,7,7,prac,40,2,40,82,1,12.497528990000092,1.649867070000255,17.302847289999818,0.5,0.4,5,1,1.6,1 1 1 1 1,1 0 0 0 1,0 1 1 1 0
232,8,8,prac,82,NA,0,32,1,[],NA,[],0.875,0.8,5,1,1.7,1 1 1 1 1,1 1 0 1 1,0 0 1 0 0
232,9,9,prac,85,2,95,99,2,7.371333390000018,1.8805662699999175,4.422931190000099,0.875,0.8666666666666667,45,0,1.5,9 9 9 9 9,8 7 8 8 8,1 2 1 1 1
232,10,10,prac,98,2,99,99,3,8.713150789999872,2.180073269999639,5.004393889999847,1,1,45,1,1.8,9 9 9 9 9,9 9 9 9 9,0 0 0 0 0
232,11,11,prac,70,2,65,55,3,10.613956489999964,2.365785869999854,7.900204289999692,0.625,0.6222222222222222,45,0,2,9 9 9 9 9,4 8 3 7 6,5 1 6 2 3
232,12,12,prac,60,2,65,75,3,10.25220048999995,1.5574961699999221,4.89982117999989,0.625,0.6,5,0,1.7,1 1 1 1 1,0 0 1 1 1,1 1 0 0 0
232,13,13,prac,60,2,65,75,1,9.24711458999991,2.7138996699995914,7.380273080000052,0.625,0.6,5,0,1.7,1 1 1 1 1,1 0 1 0 1,0 1 0 1 0
232,14,14,prac,80,2,85,97,2,6.268532690000029,1.6890677700000651,5.578271489999906,0.875,0.8,5,0,1.6,1 1 1 1 1,1 1 1 0 1,0 0 0 1 0
232,15,15,prac,20,2,15,2,1,6.313388089999762,1.497061369999983,4.557229890000144,0.125,0.2,5,0,2,1 1 1 1 1,0 0 0 1 0,1 1 1 0 1
236,1,1,prac,10,2,10,25,1,3.18242540999972,3.428747430000385,2.72607891000007,0.125,0.13333333333333333,45,0,1.9,9 9 9 9 9,1 2 0 2 1,8 7 9 7 8
236,2,2,prac,60,1,60,75,3,7.36358201000075,1.6721235299996806,14.1643427099998,0.625,0.6,5,0,1.6,1 1 1 1 1,0 1 1 0 1,1 0 0 1 0
236,3,3,prac,66,2,66,48,2,8.27140180999959,2.129237629999807,7.14738910999995,0.625,0.6,5,0,1.6,1 1 1 1 1,1 0 1 0 1,0 1 0 1 0
236,4,4,prac,75,2,66,60,3,6.27671060999955,2.23886223000045,10.01658881,0.625,0.6222222222222222,45,0,1.6,9 9 9 9 9,7 6 7 3 5,2 3 2 6 4
236,5,5,prac,35,2,40,52,2,7.48294041000008,1.971782830000393,7.07893220999995,0.375,0.37777777777777777,45,0,1.9,9 9 9 9 9,4 1 4 4 4,5 8 5 5 5
236,6,6,prac,90,3,90,72,2,4.35144871000011,4.007855229999677,5.61251691000007,0.875,0.8666666666666667,45,0,1.7,9 9 9 9 9,9 7 9 8 6,0 2 0 1 3
236,7,7,prac,40,1,30,25,2,6.60732881000058,1.3616491299999325,6.35932820000016,0.375,0.4,5,0,1.8,1 1 1 1 1,1 1 0 0 0,0 0 1 1 1
236,8,8,prac,55,1,60,73,1,4.75149490999956,1.6903385299997353,5.44682061000003,0.625,0.6,5,0,1.7,1 1 1 1 1,0 1 0 1 1,1 0 1 0 0
236,9,9,prac,65,2,65,49,1,6.5934158099999,2.6491333300004953,4.1264643100003,0.625,0.6222222222222222,45,0,1.7,9 9 9 9 9,7 4 7 6 4,2 5 2 3 5
236,10,10,prac,70,1,70,68,1,5.86342930999945,1.2639874299998155,5.20276391000016,0.875,0.8,5,1,1.8,1 1 1 1 1,1 0 1 1 1,0 1 0 0 0
236,11,11,prac,70,1,70,85,1,6.28246071000012,3.2382452300003024,3.85636330999978,0.875,0.8,5,0,1.7,1 1 1 1 1,0 1 1 1 1,1 0 0 0 0
236,12,12,prac,60,2,60,76,2,4.29309491000004,1.6327687300004072,3.19460091000019,0.625,0.6222222222222222,45,0,1.8,9 9 9 9 9,6 4 8 5 5,3 5 1 4 4
236,13,13,prac,25,1,20,10,1,10.2751310100002,1.21187043000009,5.01423301000068,0.125,0.2,5,0,1.9,1 1 1 1 1,0 0 0 1 0,1 1 1 0 1
236,14,14,prac,100,3,100,98,3,3.14635111000007,1.9490143299999545,3.11237600999993,1,1,45,1,1.8,9 9 9 9 9,9 9 9 9 9,0 0 0 0 0
236,15,15,prac,35,1,35,80,1,6.70516330999999,1.630420729999969,6.25970900999982,0.5,0.4,5,1,1.6,1 1 1 1 1,1 1 0 0 0,0 0 1 1 1
237,1,1,prac,40,1,31,24,2,17.1935882400003,2.4377742199999375,5.2461490200003,0.125,0.2,5,0,1.8,1 1 1 1 1,1 0 0 0 0,0 1 1 1 1
237,2,2,prac,95,3,95,96,3,11.0801405400002,1.5888457199998811,4.56764062000002,1,1,45,1,2,9 9 9 9 9,9 9 9 9 9,0 0 0 0 0
237,3,3,prac,45,2,40,30,1,12.6108776400001,1.849245919999703,5.81940448000023,0.375,0.4,5,0,1.7,1 1 1 1 1,1 0 1 0 0,0 1 0 1 1
237,4,4,prac,67,1,60,51,2,10.5583609399996,2.488359720000517,3.28906443999949,0.625,0.6,5,0,1.9,1 1 1 1 1,1 1 0 0 1,0 0 1 1 0
237,5,5,prac,70,2,70,53,1,7.08855993999987,1.6387216200000694,4.96112824000011,0.625,0.6222222222222222,45,0,1.8,9 9 9 9 9,4 6 6 6 6,5 3 3 3 3
237,6,6,prac,85,2,75,86,1,7.36354363999999,1.5323225199999797,5.46831557999985,0.875,0.8666666666666667,45,0,1.8,9 9 9 9 9,7 9 7 7 9,2 0 2 2 0
237,7,7,prac,40,1,50,82,1,17.8149787399998,1.2990958199998204,4.90672138000036,0.5,0.4,5,1,1.5,1 1 1 1 1,1 1 0 0 0,0 0 1 1 1
237,8,8,prac,65,1,75,80,3,7.21274174000018,1.7050929200008795,7.6718479000001,0.875,0.8,5,0,1.6,1 1 1 1 1,1 1 1 1 0,0 0 0 0 1
237,9,9,prac,60,1,66,75,2,7.17941474000008,3.8053244200004883,8.66214973999968,0.625,0.6222222222222222,45,0,1.5,9 9 9 9 9,6 5 6 8 3,3 4 3 1 6
237,10,10,prac,67,1,67,49,1,8.34368014000029,2.130862320000233,3.58880908000037,0.625,0.6,5,0,1.7,1 1 1 1 1,0 1 1 1 0,1 0 0 0 1
237,11,11,prac,67,1,53,49,3,7.14116203999993,1.997316519999913,9.47975953999958,0.625,0.6,5,0,2,1 1 1 1 1,1 0 0 1 1,0 1 1 0 0
237,12,12,prac,80,1,80,79,3,6.77675734000013,1.2892513200004032,8.66718383999978,0.875,0.8,5,1,1.6,1 1 1 1 1,1 1 0 1 1,0 0 1 0 0
237,13,13,prac,65,1,55,50,3,6.37969164000015,1.9878824200000054,7.98767167999995,0.625,0.6222222222222222,45,0,1.8,9 9 9 9 9,5 3 7 7 6,4 6 2 2 3
237,14,14,prac,40,2,30,25,3,4.47149744000035,1.9745448200001192,4.61013938000042,0.375,0.37777777777777777,45,0,1.8,9 9 9 9 9,3 3 3 3 5,6 6 6 6 4
237,15,15,prac,80,2,80,63,1,7.27130993999981,1.8299379200002477,10.0788868399995,0.125,0.13333333333333333,45,0,1.7,9 9 9 9 9,2 0 1 1 2,7 9 8 8 7
238,1,1,prac,32,3,34,50,2,12.6226203999997,2.1961676000000807,6.43567400000006,0.375,0.37777777777777777,45,0,2,9 9 9 9 9,2 5 3 5 2,7 4 6 4 7
238,2,2,prac,80,1,75,32,1,5.6182868999997,2.2970384000000195,6.1983545999999,0.875,0.8,5,1,1.9,1 1 1 1 1,1 1 1 1 0,0 0 0 0 1
238,3,3,prac,60,1,65,76,2,4.22646230000009,1.33235889999969,10.8287297999998,0.625,0.6,5,0,1.6,1 1 1 1 1,1 0 1 1 0,0 1 0 0 1
238,4,4,prac,20,1,20,5,1,11.3391071000001,1.9240171000001283,5.95697309999969,0.125,0.2,5,0,1.7,1 1 1 1 1,0 0 0 1 0,1 1 1 0 1
238,5,5,prac,78,3,75,60,3,5.4050142000001,1.5156456999998227,3.69040259999974,0.625,0.6222222222222222,45,0,1.9,9 9 9 9 9,7 3 5 6 7,2 6 4 3 2
238,6,6,prac,60,1,60,76,1,6.61348580000003,1.839489699999831,3.42344460000004,0.625,0.6,5,0,1.8,1 1 1 1 1,0 1 1 1 0,1 0 0 0 1
238,7,7,prac,40,1,32,24,2,4.57991360000005,1.766089200000124,5.10558719999995,0.375,0.4,5,0,1.7,1 1 1 1 1,1 1 0 0 0,0 0 1 1 1
238,8,8,prac,95,2,90,80,3,5.39667569999983,2.9165391999999883,5.28439639999988,0.875,0.8666666666666667,45,0,1.5,9 9 9 9 9,7 8 7 9 8,2 1 2 0 1
238,9,9,prac,65,2,65,49,1,4.95152949999988,1.3486391000001277,3.85894129999997,0.625,0.6222222222222222,45,0,1.5,9 9 9 9 9,5 7 5 7 4,4 2 4 2 5
238,10,10,prac,72,3,72,56,2,7.58786930000042,1.946839899999759,5.41865710000002,0.625,0.6222222222222222,45,0,1.7,9 9 9 9 9,6 5 6 6 5,3 4 3 3 4
238,11,11,prac,80,1,90,98,3,4.59654079999973,1.992088400000057,4.18609629999992,0.875,0.8,5,0,1.6,1 1 1 1 1,0 1 1 1 1,1 0 0 0 0
238,12,12,prac,40,1,45,82,1,3.43602690000012,1.805307700000185,3.95826090000014,0.5,0.4,5,1,1.7,1 1 1 1 1,1 0 1 0 0,0 1 0 1 1
238,13,13,prac,60,1,70,75,3,4.27046819999987,1.804718800000046,6.8979460999999,0.625,0.6,5,0,1.6,1 1 1 1 1,1 0 0 1 1,0 1 1 0 0
238,14,14,prac,10,3,14,25,3,9.96395490000032,1.7660590000000411,7.66467809999972,0.125,0.13333333333333333,45,0,1.7,9 9 9 9 9,1 2 3 0 0,8 7 6 9 9
238,15,15,prac,100,3,100,99,3,3.22970129999999,1.8077608000000964,2.83086169999979,1,1,45,1,1.8,9 9 9 9 9,9 9 9 9 9,0 0 0 0 0
243,1,1,prac,50,2,55,66,3,8.87826773999996,1.6034239200002958,5.72667393999973,0.625,0.6222222222222222,45,0,1.6,9 9 9 9 9,6 6 5 7 4,3 3 4 2 5
243,2,2,prac,10,3,10,26,1,7.84982073999981,1.3379959200005942,6.40123644000005,0.125,0.13333333333333333,45,0,2,9 9 9 9 9,1 1 2 0 2,8 8 7 9 7
243,3,3,prac,52,1,56,69,3,7.81857364000007,1.4658082199998717,5.07819503999963,0.625,0.6,5,0,2,1 1 1 1 1,1 0 1 0 1,0 1 0 1 0
243,4,4,prac,67,1,67,84,2,9.74991404000002,1.7544878200001222,8.58779393999976,0.875,0.8,5,0,1.6,1 1 1 1 1,1 1 1 1 0,0 0 0 0 1
243,5,5,prac,52,2,54,69,1,6.15044143999967,1.6625179200000275,3.83775303999982,0.625,0.6,5,0,1.8,1 1 1 1 1,1 0 1 1 0,0 1 0 0 1
243,6,6,prac,62,3,60,45,1,6.6970875399993,1.5038402199998018,5.44891383999948,0.625,0.6222222222222222,45,0,1.6,9 9 9 9 9,6 6 6 4 6,3 3 3 5 3
243,7,7,prac,30,2,30,47,1,6.74641773999974,1.554985719999877,4.58759733999932,0.375,0.37777777777777777,45,0,1.8,9 9 9 9 9,4 4 2 3 4,5 5 7 6 5
243,8,8,prac,51,2,56,66,2,5.87170284000013,1.7082087200001297,3.13008293999974,0.625,0.6,5,0,1.9,1 1 1 1 1,0 1 1 1 0,1 0 0 0 1
243,9,9,prac,37,1,37,35,2,6.14142184000048,1.3962325200000123,3.47295084000007,0.5,0.4,5,1,1.6,1 1 1 1 1,0 0 1 0 1,1 1 0 1 0
243,10,10,prac,92,3,92,93,3,6.34333243999981,1.9578591200001938,5.55869313999983,1,1,45,1,1.7,9 9 9 9 9,9 9 9 9 9,0 0 0 0 0
243,11,11,prac,89,3,85,74,1,7.10475974000019,1.9709373200003029,4.33894387999999,0.875,0.8666666666666667,45,0,1.8,9 9 9 9 9,6 8 8 8 9,3 1 1 1 0
243,12,12,prac,60,2,63,78,2,6.82143733999965,2.0714878200001294,6.07844013999966,0.625,0.6222222222222222,45,0,1.6,9 9 9 9 9,7 5 6 4 6,2 4 3 5 3
243,13,13,prac,45,1,40,30,3,7.77197333999993,1.9154600200004097,4.77627433999987,0.375,0.4,5,0,1.6,1 1 1 1 1,0 1 1 0 0,1 0 0 1 1
243,14,14,prac,66,1,66,65,3,11.2807378399998,1.9658192199999576,4.0689688399998,0.875,0.8,5,1,1.8,1 1 1 1 1,1 0 1 1 1,0 1 0 0 0
243,15,15,prac,42,2,36,25,2,6.7684383400001,1.799043320000692,3.56955004000019,0.125,0.2,5,0,2,1 1 1 1 1,0 1 0 0 0,1 0 1 1 1
244,1,1,prac,35,1,40,50,3,9.02708303999952,6.7572631200000615,5.65410563999967,0.375,0.37777777777777777,45,0,1.9,9 9 9 9 9,5 3 6 2 1,4 6 3 7 8
244,2,2,prac,80,2,85,97,2,11.1773661399993,3.407550420000007,11.7690612800002,0.875,0.8,5,0,1.9,1 1 1 1 1,1 1 1 1 0,0 0 0 0 1
244,3,3,prac,67,1,63,50,2,11.4607302400004,1.4636574200003452,12.3594608400003,0.625,0.6222222222222222,45,0,1.6,9 9 9 9 9,3 5 8 7 5,6 4 1 2 4
244,4,4,prac,80,2,80,32,1,7.09687564000023,1.3076746200003981,5.35017037999978,0.875,0.8,5,1,1.9,1 1 1 1 1,1 1 1 0 1,0 0 0 1 0
244,5,5,prac,20,2,10,3,3,4.88228073999971,1.2221406200001184,11.6569018399996,0.125,0.2,5,0,1.8,1 1 1 1 1,0 0 1 0 0,1 1 0 1 1
244,6,6,prac,60,2,66,75,2,10.9056693399998,1.5827048200003446,8.16664833999994,0.625,0.6,5,0,1.7,1 1 1 1 1,0 1 0 1 1,1 0 1 0 0
244,7,7,prac,40,2,40,40,2,5.83838393999986,1.424101719999726,3.24541004000002,0.5,0.4,5,1,1.9,1 1 1 1 1,1 1 0 0 0,0 0 1 1 1
244,8,8,prac,45,1,48,62,1,12.7803815400007,1.7465111199999228,7.17334574000006,0.625,0.6222222222222222,45,0,2,9 9 9 9 9,6 6 3 8 5,3 3 6 1 4
244,9,9,prac,15,2,12,1,2,4.83485684000016,1.3064487199999348,7.16668904000016,0.125,0.13333333333333333,45,0,2,9 9 9 9 9,2 0 0 2 2,7 9 9 7 7
244,10,10,prac,50,2,58,66,3,5.63001064000036,1.7731770200002757,9.16031694000003,0.625,0.6222222222222222,45,0,2,9 9 9 9 9,5 7 6 4 6,4 2 3 5 3
244,11,11,prac,60,2,60,75,1,6.31343654000057,1.1302806200001214,4.46777314000019,0.625,0.6,5,0,1.9,1 1 1 1 1,1 1 0 0 1,0 0 1 1 0
244,12,12,prac,40,2,30,23,3,4.42644874000052,1.8391089199999442,14.7323543400003,0.375,0.4,5,0,1.8,1 1 1 1 1,0 1 0 0 1,1 0 1 1 0
244,13,13,prac,12,3,12,87,3,4.84937994000029,3.754785819999597,7.88359174000016,0.875,0.8666666666666667,45,0,1.7,9 9 9 9 9,7 9 7 8 8,2 0 2 1 1
244,14,14,prac,60,2,68,77,3,5.02653173999988,1.5723282199996902,3.83648473999983,0.625,0.6,5,0,2,1 1 1 1 1,1 1 1 0 0,0 0 0 1 1
244,15,15,prac,97,3,98,99,3,6.68809594000049,2.155076519999966,5.90309623999974,1,1,45,1,1.8,9 9 9 9 9,9 9 9 9 9,0 0 0 0 0
245,1,1,prac,40,1,40,40,3,9.30547342999989,1.5388494899998477,7.6336088299995,0.5,0.4,5,1,1.7,1 1 1 1 1,0 1 0 1 0,1 0 1 0 1
245,2,2,prac,45,2,50,60,1,13.7110008299996,1.2746764899998198,4.74085465999997,0.625,0.6222222222222222,45,0,1.8,9 9 9 9 9,7 5 4 7 5,2 4 5 2 4
245,3,3,prac,60,1,65,75,1,6.75515532999998,1.257589189999635,5.74165216000029,0.625,0.6,5,0,1.5,1 1 1 1 1,0 1 1 1 0,1 0 0 0 1
245,4,4,prac,10,3,15,27,3,5.07655083000054,1.3078465899998264,3.40307356000039,0.125,0.13333333333333333,45,0,1.5,9 9 9 9 9,1 2 1 1 1,8 7 8 8 8
245,5,5,prac,100,3,100,99,3,3.72636963000014,1.9668393900005867,7.24548423000033,1,1,45,1,1.7,9 9 9 9 9,9 9 9 9 9,0 0 0 0 0
245,6,6,prac,80,1,93,96,3,4.87156903000005,2.0727011900003163,13.9398014300004,0.875,0.8,5,0,1.8,1 1 1 1 1,1 0 1 1 1,0 1 0 0 0
245,7,7,prac,80,1,80,80,2,5.47164492999991,4.0912498899997445,4.89283043000023,0.875,0.8,5,1,1.7,1 1 1 1 1,0 1 1 1 1,1 0 0 0 0
245,8,8,prac,95,3,90,80,3,5.76284733000011,1.7549061899999288,4.75106285999982,0.875,0.8666666666666667,45,0,1.7,9 9 9 9 9,8 7 9 7 8,1 2 0 2 1
245,9,9,prac,40,1,30,22,2,5.71335553000017,2.5896803899995575,6.01835985999969,0.375,0.4,5,0,1.7,1 1 1 1 1,1 0 0 0 1,0 1 1 1 0
245,10,10,prac,75,3,70,57,2,6.93517143000054,2.766078590000234,8.29755403000036,0.625,0.6222222222222222,45,0,1.6,9 9 9 9 9,5 8 2 7 6,4 1 7 2 3
245,11,11,prac,60,1,72,75,2,4.17984002999992,1.1825774899998578,5.03765453000005,0.625,0.6,5,0,1.9,1 1 1 1 1,0 0 1 1 1,1 1 0 0 0
245,12,12,prac,20,1,15,2,1,6.72178372999997,1.5244541900001423,8.18544293000014,0.125,0.2,5,0,1.8,1 1 1 1 1,0 0 1 0 0,1 1 0 1 1
245,13,13,prac,32,3,32,50,1,3.89647582999987,1.7243656900000133,2.23757173000013,0.375,0.37777777777777777,45,0,1.7,9 9 9 9 9,2 3 6 3 3,7 6 3 6 6
245,14,14,prac,70,2,65,55,3,12.2169480299995,3.947841989999688,4.50312932999941,0.625,0.6222222222222222,45,0,1.5,9 9 9 9 9,6 6 6 5 5,3 3 3 4 4
245,15,15,prac,60,1,77,77,3,4.9074389299999,1.946443889999955,5.76849452999977,0.625,0.6,5,0,2,1 1 1 1 1,0 1 1 0 1,1 0 0 1 0
246,1,1,prac,80,3,80,97,1,6.31837371000074,2.0148297300002014,5.3149645200001,0.875,0.8,5,0,1.9,1 1 1 1 1,1 1 1 1 0,0 0 0 0 1
246,2,2,prac,60,2,60,75,1,7.0393827099997,2.0487360300003274,6.04687052000099,0.625,0.6,5,0,1.8,1 1 1 1 1,1 1 0 1 0,0 0 1 0 1
246,3,3,prac,85,3,85,99,3,5.67663051,1.8298440300004586,6.29597510999974,0.875,0.8666666666666667,45,0,1.6,9 9 9 9 9,9 8 7 7 8,0 1 2 2 1
246,4,4,prac,40,3,40,42,2,7.79172250999909,1.9628767300000618,2.57185371000014,0.5,0.4,5,1,1.5,1 1 1 1 1,1 0 0 1 0,0 1 1 0 1
246,5,5,prac,60,1,65,76,2,11.7274132099992,2.732392030000483,3.63990841000032,0.625,0.6222222222222222,45,0,1.6,9 9 9 9 9,6 6 5 5 6,3 3 4 4 3
246,6,6,prac,60,2,65,76,3,3.53466420999939,1.7404546299994763,4.30856220999976,0.625,0.6222222222222222,45,0,1.6,9 9 9 9 9,5 6 7 4 6,4 3 2 5 3
246,7,7,prac,8,3,10,24,1,4.31808770999942,1.924387229999411,2.54954161000023,0.125,0.13333333333333333,45,0,2,9 9 9 9 9,2 1 2 1 0,7 8 7 8 9
246,8,8,prac,33,2,33,48,2,7.20450330999938,2.5134785300006115,3.49981781000042,0.375,0.37777777777777777,45,0,1.7,9 9 9 9 9,4 4 2 2 5,5 5 7 7 4
246,9,9,prac,67,2,65,49,1,6.15170851000039,2.008060629999818,4.42381330999979,0.625,0.6222222222222222,45,0,2,9 9 9 9 9,5 7 4 5 7,4 2 5 4 2
246,10,10,prac,80,3,80,28,1,7.5136097099994,1.8739287300004435,3.64617630999965,0.875,0.8,5,1,1.5,1 1 1 1 1,1 1 0 1 1,0 0 1 0 0
246,11,11,prac,20,3,20,5,3,5.68797270999949,1.7819245300006514,3.29987550999977,0.125,0.2,5,0,1.9,1 1 1 1 1,0 1 0 0 0,1 0 1 1 1
246,12,12,prac,60,3,60,75,2,5.11819411000033,2.0990432300004613,3.42564531000062,0.625,0.6,5,0,1.9,1 1 1 1 1,1 1 1 0 0,0 0 0 1 1
246,13,13,prac,60,3,60,75,3,5.1181776100002,1.8228651300005367,4.15232461000141,0.625,0.6,5,0,1.5,1 1 1 1 1,0 1 1 1 0,1 0 0 0 1
246,14,14,prac,40,3,40,25,1,3.96806410999943,1.5987901299995428,3.27259652000066,0.375,0.4,5,0,1.6,1 1 1 1 1,0 1 1 0 0,1 0 0 1 1
246,15,15,prac,100,3,98,98,3,9.53546900999936,2.132685730000958,2.96463760999995,1,1,45,1,1.6,9 9 9 9 9,9 9 9 9 9,0 0 0 0 0
247,1,1,prac,65,3,65,49,1,7.52195737999955,2.631664739999451,2.74539377999963,0.625,0.6222222222222222,45,0,1.5,9 9 9 9 9,5 5 5 8 5,4 4 4 1 4
247,2,2,prac,75,3,75,90,3,19.1762999799998,2.1797927399998116,8.31750198000009,0.875,0.8,5,0,1.9,1 1 1 1 1,0 1 1 1 1,1 0 0 0 0
247,3,3,prac,60,2,65,78,2,5.62661997999976,1.988650140000118,4.8336055599998,0.625,0.6222222222222222,45,0,1.7,9 9 9 9 9,4 4 9 6 5,5 5 0 3 4
247,4,4,prac,50,1,58,67,1,4.74107347999961,1.5218356399996082,15.0118623599997,0.625,0.6,5,0,1.8,1 1 1 1 1,0 1 0 1 1,1 0 1 0 0
247,5,5,prac,20,2,10,5,3,7.83866607999971,2.132457339999746,6.15814937999994,0.125,0.2,5,0,1.9,1 1 1 1 1,1 0 0 0 0,0 1 1 1 1
247,6,6,prac,65,3,65,50,2,8.38874917999965,1.9822418399994604,4.08747078000033,0.625,0.6,5,0,1.8,1 1 1 1 1,1 0 0 1 1,0 1 1 0 0
247,7,7,prac,50,1,33,33,3,5.32655178000005,1.9969159399997807,8.59303016000013,0.375,0.4,5,0,1.7,1 1 1 1 1,0 0 1 0 1,1 1 0 1 0
247,8,8,prac,85,2,25,40,1,11.62247338,3.1995622399995227,15.8372980599997,0.875,0.8,5,1,1.9,1 1 1 1 1,1 1 0 1 1,0 0 1 0 0
247,9,9,prac,55,3,65,71,3,5.0633166800003,2.549624739999672,5.94182025999999,0.625,0.6,5,0,1.9,1 1 1 1 1,1 0 1 1 0,0 1 0 0 1
247,10,10,prac,35,3,35,33,1,3.88944028000014,2.0158110399997895,7.96906548000015,0.5,0.4,5,1,1.9,1 1 1 1 1,1 0 0 0 1,0 1 1 1 0
247,11,11,prac,95,3,90,80,3,4.13620327999979,1.8493090399997527,5.16243107999981,0.875,0.8666666666666667,45,0,1.9,9 9 9 9 9,8 9 7 8 7,1 0 2 1 2
247,12,12,prac,10,3,10,27,2,4.50144377999959,1.824583139999504,3.24966656000015,0.125,0.13333333333333333,45,0,1.6,9 9 9 9 9,3 0 1 2 0,6 9 8 7 9
247,13,13,prac,35,2,40,53,2,6.00167417999955,1.7411927399998604,3.84006825999995,0.375,0.37777777777777777,45,0,1.6,9 9 9 9 9,4 3 4 3 3,5 6 5 6 6
247,14,14,prac,100,3,100,98,3,3.45967277999989,1.565088239999568,2.42123887999969,1,1,45,1,1.9,9 9 9 9 9,9 9 9 9 9,0 0 0 0 0
247,15,15,prac,55,2,60,73,3,4.94100638000009,2.5631030399995325,5.98055607999959,0.625,0.6222222222222222,45,0,1.7,9 9 9 9 9,7 4 6 5 6,2 5 3 4 3
249,1,1,prac,80,3,85,95,1,5.1099045599999,2.7985142799998357,4.5956796599994,0.875,0.8,5,0,1.9,1 1 1 1 1,1 1 0 1 1,0 0 1 0 0
249,2,2,prac,62,3,66,77,3,9.12170915999968,3.513603580000108,4.71358285999941,0.625,0.6222222222222222,45,0,1.7,9 9 9 9 9,5 5 6 6 6,4 4 3 3 3
249,3,3,prac,60,3,64,75,3,4.22889336000026,2.4133701799996743,6.16939165999975,0.625,0.6,5,0,1.8,1 1 1 1 1,1 1 0 0 1,0 0 1 1 0
249,4,4,prac,80,3,65,31,1,5.47661826000012,2.524472380000134,4.46620805999964,0.875,0.8,5,1,1.5,1 1 1 1 1,1 1 1 1 0,0 0 0 0 1
249,5,5,prac,20,3,11,3,3,3.52975865999997,2.6891900799992072,4.53479210000023,0.125,0.2,5,0,1.8,1 1 1 1 1,0 1 0 0 0,1 0 1 1 1
249,6,6,prac,34,3,40,50,2,4.97137515999975,2.8817002799992224,4.95623215999922,0.375,0.37777777777777777,45,0,1.9,9 9 9 9 9,5 4 3 3 2,4 5 6 6 7
249,7,7,prac,60,2,64,76,2,5.93502665999995,1.9743370800001685,4.23463119999997,0.625,0.6,5,0,1.9,1 1 1 1 1,0 0 1 1 1,1 1 0 0 0
249,8,8,prac,50,2,52,65,2,4.77112175999991,3.4300325799999882,4.7497701999996,0.625,0.6222222222222222,45,0,1.9,9 9 9 9 9,8 6 3 6 5,1 3 6 3 4
249,9,9,prac,100,3,97,98,3,3.47431106000022,2.0381151799997497,6.79876886000011,1,1,45,1,1.6,9 9 9 9 9,9 9 9 9 9,0 0 0 0 0
249,10,10,prac,60,3,61,77,1,2.29627325999991,2.148112879999644,2.73226825999973,0.625,0.6,5,0,1.8,1 1 1 1 1,1 1 0 1 0,0 0 1 0 1
249,11,11,prac,18,2,17,1,1,4.39310565999995,3.508536379999896,5.58660056000008,0.125,0.13333333333333333,45,0,1.9,9 9 9 9 9,3 0 1 1 1,6 9 8 8 8
249,12,12,prac,68,2,64,51,1,4.9491131599998,2.646717279999848,5.00177155999972,0.625,0.6222222222222222,45,0,1.7,9 9 9 9 9,3 4 6 8 7,6 5 3 1 2
249,13,13,prac,40,2,40,40,2,2.87130866000007,2.6055636799997046,5.17838175999987,0.5,0.4,5,1,1.5,1 1 1 1 1,1 1 0 0 0,0 0 1 1 1
249,14,14,prac,40,3,33,23,2,4.13320916000021,1.5804098799999338,4.80715665999969,0.375,0.4,5,0,1.8,1 1 1 1 1,0 0 1 1 0,1 1 0 0 1
249,15,15,prac,77,2,79,93,1,5.02662675999954,1.6656149800001003,3.41063845999997,0.875,0.8666666666666667,45,0,1.6,9 9 9 9 9,6 9 8 8 8,3 0 1 1 1
250,1,1,prac,45,2,45,28,1,6.18199245999995,3.6586095599999453,4.59191386000009,0.375,0.4,5,0,1.9,1 1 1 1 1,1 1 0 0 0,0 0 1 1 1
250,2,2,prac,57,2,71,75,3,3.68572025999993,2.0580303599998615,6.49219316000006,0.625,0.6,5,0,1.9,1 1 1 1 1,1 1 0 1 0,0 0 1 0 1
250,3,3,prac,58,2,67,75,3,3.34878465999998,2.276824759999954,4.02372666000008,0.625,0.6222222222222222,45,0,1.6,9 9 9 9 9,5 8 6 6 3,4 1 3 3 6
250,4,4,prac,90,3,90,90,3,3.91577815999995,1.8768225599999369,4.02532056000007,1,1,45,1,1.6,9 9 9 9 9,9 9 9 9 9,0 0 0 0 0
250,5,5,prac,45,1,43,2,1,11.8188800600001,2.076393860000053,3.68278495999994,0.5,0.4,5,1,1.8,1 1 1 1 1,0 0 1 0 1,1 1 0 1 0
250,6,6,prac,65,2,60,50,3,3.34916176000002,2.3133342600000333,5.11846456000001,0.375,0.37777777777777777,45,0,1.6,9 9 9 9 9,5 4 3 2 3,4 5 6 7 6
250,7,7,prac,69,3,70,51,1,4.85252455999989,1.4592349600000034,4.98445870000012,0.625,0.6222222222222222,45,0,1.8,9 9 9 9 9,5 6 5 8 4,4 3 4 1 5
250,8,8,prac,70,1,78,85,3,8.09899066000003,2.960782859999995,4.79689545999997,0.875,0.8,5,0,1.9,1 1 1 1 1,1 0 1 1 1,0 1 0 0 0
250,9,9,prac,34,1,30,16,1,6.04906756000003,2.046156060000044,5.11990890000004,0.125,0.2,5,0,1.6,1 1 1 1 1,0 0 0 0 1,1 1 1 1 0
250,10,10,prac,50,1,50,49,2,6.10236696000004,7.142247559999987,2.83368945999996,0.875,0.8,5,1,1.9,1 1 1 1 1,1 1 0 1 1,0 0 1 0 0
250,11,11,prac,60,1,70,75,2,3.68256326000005,1.9936473600000681,3.98314135999976,0.625,0.6,5,0,1.6,1 1 1 1 1,0 0 1 1 1,1 1 0 0 0
250,12,12,prac,80,3,80,97,1,6.33231425999998,1.6599534600002244,5.8652775600001,0.875,0.8666666666666667,45,0,1.7,9 9 9 9 9,9 8 8 7 7,0 1 1 2 2
250,13,13,prac,50,1,57,67,2,2.29914015999998,2.176337260000082,7.36965536000002,0.625,0.6222222222222222,45,0,1.7,9 9 9 9 9,7 5 6 4 6,2 4 3 5 3
250,14,14,prac,60,1,55,76,1,6.30223995999995,2.626643260000037,6.43419166000035,0.625,0.6,5,0,1.9,1 1 1 1 1,0 0 1 1 1,1 1 0 0 0
250,15,15,prac,89,3,89,71,1,9.80241186000012,1.6093487599998753,4.11310156000013,0.125,0.13333333333333333,45,0,1.9,9 9 9 9 9,1 1 2 1 1,8 8 7 8 8
252,1,1,prac,80,3,85,98,3,6.84902725999973,3.3102122600002986,5.22101336000014,0.875,0.8,5,0,1.9,1 1 1 1 1,1 0 1 1 1,0 1 0 0 0
252,2,2,prac,85,2,85,28,1,8.50234876000013,2.4564416600001096,7.79351426000039,0.875,0.8,5,1,1.9,1 1 1 1 1,1 1 1 0 1,0 0 0 1 0
252,3,3,prac,40,2,35,25,2,10.5322003600004,2.626884660000087,4.85931766000022,0.375,0.37777777777777777,45,0,2,9 9 9 9 9,4 5 2 5 1,5 4 7 4 8
252,4,4,prac,60,3,60,76,2,10.0190247599999,2.856757259999995,3.55252066000003,0.625,0.6,5,0,1.5,1 1 1 1 1,0 1 1 0 1,1 0 0 1 0
252,5,5,prac,77,1,75,61,1,9.01553835999994,2.244090359999973,5.08544656000004,0.625,0.6222222222222222,45,0,1.6,9 9 9 9 9,7 3 7 6 5,2 6 2 3 4
252,6,6,prac,60,3,60,75,3,8.38572866000004,2.0395742600007907,5.09491316000003,0.625,0.6,5,0,1.9,1 1 1 1 1,1 1 0 1 0,0 0 1 0 1
252,7,7,prac,97,3,95,80,3,7.26566135999974,4.060504159999709,4.92343755999991,0.875,0.8666666666666667,45,0,1.8,9 9 9 9 9,7 9 7 8 8,2 0 2 1 1
252,8,8,prac,20,2,20,5,2,4.95243275999974,2.3256397600002856,3.29597995999984,0.125,0.2,5,0,1.5,1 1 1 1 1,0 0 0 1 0,1 1 1 0 1
252,9,9,prac,40,2,40,22,1,18.2321244599998,2.227390259999993,4.85616385999992,0.375,0.4,5,0,1.6,1 1 1 1 1,1 1 0 0 0,0 0 1 1 1
252,10,10,prac,100,3,99,98,3,3.26573875999975,2.460526159999972,6.97814045999985,1,1,45,1,1.9,9 9 9 9 9,9 9 9 9 9,0 0 0 0 0
252,11,11,prac,60,1,60,75,1,5.5023134600001,2.023549760000151,4.26259026000025,0.625,0.6,5,0,1.7,1 1 1 1 1,1 1 1 0 0,0 0 0 1 1
252,12,12,prac,40,2,40,39,1,10.1489751599997,2.4972155599998587,4.25816296000039,0.5,0.4,5,1,1.8,1 1 1 1 1,0 1 1 0 0,1 0 0 1 1
252,13,13,prac,8,2,10,23,2,8.39895406000005,5.727042760000131,4.58645066000054,0.125,0.13333333333333333,45,0,1.7,9 9 9 9 9,0 2 1 3 0,9 7 8 6 9
252,14,14,prac,65,1,63,50,3,6.34908055999995,3.2440139599998474,3.12801576000038,0.625,0.6222222222222222,45,0,1.8,9 9 9 9 9,5 8 7 3 5,4 1 2 6 4
252,15,15,prac,70,2,65,55,2,6.51572455999985,1.8931211599997368,6.38737020000008,0.625,0.6222222222222222,45,0,1.7,9 9 9 9 9,5 5 7 7 4,4 4 2 2 5
253,1,1,prac,40,3,40,41,1,8.77965182999992,2.244880589999866,3.78131656999994,0.5,0.4,5,1,1.6,1 1 1 1 1,1 0 1 0 0,0 1 0 1 1
253,2,2,prac,45,3,45,28,2,10.7021949299999,2.2723782899997786,4.10309236000012,0.375,0.4,5,0,1.6,1 1 1 1 1,1 0 1 0 0,0 1 0 1 1
253,3,3,prac,65,2,62,49,2,8.05291372999977,1.9657769900002222,5.11548456000014,0.625,0.6222222222222222,45,0,1.6,9 9 9 9 9,5 6 6 7 4,4 3 3 2 5
253,4,4,prac,80,3,80,97,2,8.78525863000027,3.416788690000203,5.00132096000016,0.875,0.8,5,0,1.6,1 1 1 1 1,1 1 0 1 1,0 0 1 0 0
253,5,5,prac,25,2,25,10,3,7.90528513000004,4.414011989999835,7.00123283000016,0.125,0.13333333333333333,45,0,2,9 9 9 9 9,3 1 0 1 1,6 8 9 8 8
253,6,6,prac,60,2,60,77,1,4.59936263000031,1.7795122900001843,3.56846543000006,0.625,0.6222222222222222,45,0,1.7,9 9 9 9 9,5 6 6 7 4,4 3 3 2 5
253,7,7,prac,80,3,80,22,1,4.32933943000012,3.104655990000083,5.31889493000017,0.875,0.8,5,1,1.6,1 1 1 1 1,1 1 1 1 0,0 0 0 0 1
253,8,8,prac,58,3,58,75,1,5.80998682999984,1.9913917900000797,3.13553172999991,0.625,0.6,5,0,1.8,1 1 1 1 1,1 1 1 0 0,0 0 0 1 1
253,9,9,prac,85,3,85,31,1,3.15372543000012,2.05498719000002,3.87295873000016,0.875,0.8666666666666667,45,0,1.6,9 9 9 9 9,9 8 7 7 8,0 1 2 2 1
253,10,10,prac,100,3,98,98,3,6.30166863000022,3.290847789999816,3.02878342999998,1,1,45,1,1.9,9 9 9 9 9,9 9 9 9 9,0 0 0 0 0
253,11,11,prac,65,3,60,50,3,7.90824573000009,3.1134074900000996,6.66552503000025,0.625,0.6,5,0,2,1 1 1 1 1,0 1 1 0 1,1 0 0 1 0
253,12,12,prac,45,3,45,30,3,5.81829693000009,2.6581553900002746,4.20394963000012,0.375,0.37777777777777777,45,0,1.6,9 9 9 9 9,2 5 7 3 0,7 4 2 6 9
253,13,13,prac,60,3,65,75,2,4.47156102999998,2.004803089999996,5.92367933000014,0.625,0.6,5,0,1.8,1 1 1 1 1,1 1 0 0 1,0 0 1 1 0
253,14,14,prac,65,3,65,50,3,4.46813033000012,2.290936990000091,2.82291473000009,0.625,0.6222222222222222,45,0,1.7,9 9 9 9 9,4 5 6 5 8,5 4 3 4 1
253,15,15,prac,25,3,20,10,2,7.04631212999993,2.422503090000191,2.25608793000038,0.125,0.2,5,0,1.7,1 1 1 1 1,0 0 1 0 0,1 1 0 1 1
255,1,1,prac,60,1,68,76,1,11.1984855300002,2.8245410300000913,17.32492508,0.625,0.6,5,0,1.9,1 1 1 1 1,1 1 1 0 0,0 0 0 1 1
255,2,2,prac,60,1,73,75,3,13.7350979299999,1.9736996300000555,9.9295814799998,0.625,0.6,5,0,1.9,1 1 1 1 1,1 0 1 0 1,0 1 0 1 0
255,3,3,prac,20,1,4,2,3,7.23555053000018,2.692027830000143,4.16517158000011,0.125,0.2,5,0,2,1 1 1 1 1,0 1 0 0 0,1 0 1 1 1
255,4,4,prac,10,2,18,27,2,9.51860442999964,2.4075834299999315,12.3316458800002,0.125,0.13333333333333333,45,0,1.5,9 9 9 9 9,2 2 2 0 0,7 7 7 9 9
255,5,5,prac,40,2,31,22,2,10.53518573,2.541355629999998,9.78186497999991,0.375,0.37777777777777777,45,0,1.9,9 9 9 9 9,3 2 4 5 3,6 7 5 4 6
255,6,6,prac,80,1,88,97,1,4.76868822999995,1.8588871299998573,9.76211318000014,0.875,0.8,5,0,1.7,1 1 1 1 1,1 1 0 1 1,0 0 1 0 0
255,7,7,prac,40,1,40,40,3,6.63239832999989,1.9300240299999132,3.82633657999986,0.5,0.4,5,1,1.6,1 1 1 1 1,1 0 0 1 0,0 1 1 0 1
255,8,8,prac,60,2,65,75,1,2.94920292999996,2.494401630000084,10.2009320799998,0.625,0.6222222222222222,45,0,1.5,9 9 9 9 9,5 5 4 5 9,4 4 5 4 0
255,9,9,prac,80,1,81,82,1,3.54907983000021,3.010519630000317,4.6512678800002,0.875,0.8,5,1,1.9,1 1 1 1 1,1 0 1 1 1,0 1 0 0 0
255,10,10,prac,70,2,63,55,2,9.98225932999981,2.393977730000188,5.43450108000002,0.625,0.6222222222222222,45,0,1.7,9 9 9 9 9,5 7 5 7 4,4 2 4 2 5
255,11,11,prac,85,2,82,69,1,5.48568993000004,2.155421029999843,6.88221797999995,0.875,0.8666666666666667,45,0,1.8,9 9 9 9 9,8 9 7 9 6,1 0 2 0 3
255,12,12,prac,60,1,70,75,2,5.21574043000032,2.0603609300001153,5.47068925000008,0.625,0.6,5,0,1.6,1 1 1 1 1,0 1 1 1 0,1 0 0 0 1
255,13,13,prac,40,1,26,23,2,5.75231453000015,2.8094719299999724,2.93397738000021,0.375,0.4,5,0,2,1 1 1 1 1,0 0 0 1 1,1 1 1 0 0
255,14,14,prac,63,2,72,78,3,6.79906183000026,2.3263790299999982,10.8355990800001,0.625,0.6222222222222222,45,0,1.7,9 9 9 9 9,7 5 5 4 7,2 4 4 5 2
255,15,15,prac,97,2,97,96,3,5.71574302999989,2.180572629999915,5.94469397999978,1,1,45,1,1.8,9 9 9 9 9,9 9 9 9 9,0 0 0 0 0
263,1,1,prac,12,2,15,28,3,11.4891271500001,1.59823584999981,2.62909854999998,0.125,0.13333333333333333,45,0,1.9,9 9 9 9 9,3 1 0 2 0,6 8 9 7 9
263,2,2,prac,12,3,12,29,2,8.41049874999999,1.3416632500000105,2.68383975000006,0.875,0.8666666666666667,45,0,1.6,9 9 9 9 9,8 7 9 8 7,1 2 0 1 2
263,3,3,prac,40,3,40,25,2,10.1772003499996,0.9830308499999774,3.71757575000015,0.375,0.4,5,0,1.9,1 1 1 1 1,1 1 0 0 0,0 0 1 1 1
263,4,4,prac,60,3,60,75,2,7.10860915000035,1.7227817499999674,4.23325514999965,0.625,0.6,5,0,1.7,1 1 1 1 1,1 1 0 1 0,0 0 1 0 1
263,5,5,prac,20,3,20,5,1,4.78267505000008,1.4462204500000553,1.82812324999963,0.125,0.2,5,0,1.6,1 1 1 1 1,0 0 1 0 0,1 1 0 1 1
263,6,6,prac,60,3,60,75,1,4.94865245000005,1.4724929499996051,4.44278534999989,0.625,0.6,5,0,1.6,1 1 1 1 1,0 0 1 1 1,1 1 0 0 0
263,7,7,prac,100,3,100,98,3,3.51794785000038,1.864778749999914,3.18923214999995,1,1,45,1,1.7,9 9 9 9 9,9 9 9 9 9,0 0 0 0 0
263,8,8,prac,34,3,66,52,3,5.82662174999996,1.7079057500004637,6.96616124999991,0.375,0.37777777777777777,45,0,1.5,9 9 9 9 9,4 4 2 4 3,5 5 7 5 6
263,9,9,prac,60,3,60,75,3,4.10482904999981,3.8243165499998213,3.80019774999982,0.625,0.6,5,0,1.9,1 1 1 1 1,0 1 1 1 0,1 0 0 0 1
263,10,10,prac,34,2,34,49,1,11.2523675500001,1.972690849999708,2.55779704999986,0.625,0.6222222222222222,45,0,2,9 9 9 9 9,6 6 5 4 7,3 3 4 5 2
263,11,11,prac,68,1,68,50,2,10.7639236499999,2.2581093500007228,3.98976014999971,0.625,0.6222222222222222,45,0,1.6,9 9 9 9 9,6 5 5 3 9,3 4 4 6 0
263,12,12,prac,22,1,36,40,3,10.1055978499999,1.650919149999936,6.63306115000023,0.625,0.6222222222222222,45,0,1.7,9 9 9 9 9,5 7 5 7 4,4 2 4 2 5
263,13,13,prac,80,3,80,80,1,4.58475245,1.7572913499998322,4.08602344999963,0.875,0.8,5,1,1.8,1 1 1 1 1,1 1 1 0 1,0 0 0 1 0
263,14,14,prac,40,3,40,40,3,3.2380471499996,1.4990504500001407,4.93813464999994,0.5,0.4,5,1,1.8,1 1 1 1 1,0 1 0 0 1,1 0 1 1 0
263,15,15,prac,80,3,80,97,1,4.52153045000068,1.6574933499996405,4.6103314500001,0.875,0.8,5,0,2,1 1 1 1 1,1 0 1 1 1,0 1 0 0 0
269,1,1,prac,65,2,65,50,1,12.7142897700001,2.1060634100001607,5.95028407000018,0.625,0.6222222222222222,45,0,1.5,9 9 9 9 9,6 6 8 2 6,3 3 1 7 3
269,2,2,prac,66,2,64,50,3,15.9010111699999,2.7130515099997865,12.5058044700002,0.625,0.6,5,0,2,1 1 1 1 1,1 1 0 0 1,0 0 1 1 0
269,3,3,prac,80,3,80,80,3,18.1343814700001,1.8129575099999329,4.99342187000002,0.875,0.8,5,1,1.9,1 1 1 1 1,1 1 1 0 1,0 0 0 1 0
269,4,4,prac,80,3,80,96,3,4.86557487000005,1.6466864100000294,4.12808040000027,0.875,0.8,5,0,1.6,1 1 1 1 1,0 1 1 1 1,1 0 0 0 0
269,5,5,prac,60,3,60,75,1,14.0061429700002,2.0080706100000043,6.15067396999962,0.625,0.6,5,0,1.9,1 1 1 1 1,0 1 1 1 0,1 0 0 0 1
269,6,6,prac,10,2,17,27,3,3.5513566699999,2.01684221000005,2.91840296999976,0.125,0.13333333333333333,45,0,1.5,9 9 9 9 9,1 0 2 0 3,8 9 7 9 6
269,7,7,prac,58,1,62,74,2,5.57125746999986,2.0811430100000052,5.08384106999983,0.625,0.6222222222222222,45,0,1.7,9 9 9 9 9,7 1 5 7 8,2 8 4 2 1
269,8,8,prac,40,3,40,38,3,9.9306290699999,1.9224309100000028,7.66756117,0.5,0.4,5,1,1.9,1 1 1 1 1,1 0 0 0 1,0 1 1 1 0
269,9,9,prac,51,1,66,67,3,3.2837272700001,1.9715372100001787,4.8462322700002,0.625,0.6222222222222222,45,0,1.6,9 9 9 9 9,4 5 8 6 5,5 4 1 3 4
269,10,10,prac,60,3,60,78,2,7.95530916999974,2.405667309999899,8.18502437000029,0.625,0.6,5,0,1.7,1 1 1 1 1,0 1 1 0 1,1 0 0 1 0
269,11,11,prac,41,1,33,23,2,3.55967456999974,2.1721029099999214,4.11728696999967,0.375,0.37777777777777777,45,0,1.6,9 9 9 9 9,3 4 2 3 5,6 5 7 6 4
269,12,12,prac,92,2,86,75,3,6.46840406999991,1.4248418099998617,7.10258536999982,0.875,0.8666666666666667,45,0,1.7,9 9 9 9 9,8 7 7 9 8,1 2 2 0 1
269,13,13,prac,20,3,40,38,3,6.91351827000017,1.7822150100000727,11.89949187,0.375,0.4,5,0,1.6,1 1 1 1 1,1 1 0 0 0,0 0 1 1 1
269,14,14,prac,20,3,20,3,1,5.9634235699998,2.203973410000117,3.77061597000011,0.125,0.2,5,0,1.8,1 1 1 1 1,0 0 0 0 1,1 1 1 1 0
269,15,15,prac,100,3,100,98,3,5.97666687000014,2.10558911000021,3.01739857000007,1,1,45,1,1.5,9 9 9 9 9,9 9 9 9 9,0 0 0 0 0
271,1,1,prac,95,3,96,97,3,6.32129490999978,1.837113829997179,5.112850609997622,1,1,45,1,1.8,9 9 9 9 9,9 9 9 9 9,0 0 0 0 0
271,2,2,prac,34,2,42,51,3,12.2059214099972,1.3071189300007973,[],0.375,0.37777777777777777,45,0,2,9 9 9 9 9,1 4 2 4 6,8 5 7 5 3
271,3,3,prac,60,3,61,78,3,13.3193366099968,1.644283629997517,7.69227071000023,0.625,0.6,5,0,1.7,1 1 1 1 1,0 0 1 1 1,1 1 0 0 0
271,4,4,prac,40,3,30,22,3,5.58742730999984,2.138581430001068,9.515831410000828,0.375,0.4,5,0,1.9,1 1 1 1 1,0 0 1 1 0,1 1 0 0 1
271,5,5,prac,87,2,73,71,3,10.2855330099974,2.6551193300001614,5.064652609997211,0.875,0.8666666666666667,45,0,1.9,9 9 9 9 9,8 9 7 7 8,1 0 2 2 1
271,6,6,prac,80,2,80,80,2,4.13775531000101,1.4130241300008493,3.8657335099997,0.875,0.8,5,1,1.7,1 1 1 1 1,1 1 1 0 1,0 0 0 1 0
271,7,7,prac,40,3,50,39,1,8.03069490999951,1.8290845299998182,9.176044709996859,0.5,0.4,5,1,1.8,1 1 1 1 1,1 1 0 0 0,0 0 1 1 1
271,8,8,prac,12,1,20,27,2,4.08472131000053,7.0752062299998215,3.7249574099969323,0.125,0.13333333333333333,45,0,1.7,9 9 9 9 9,3 1 0 1 1,6 8 9 8 8
271,9,9,prac,60,2,66,75,2,7.63030921000063,3.0906518300016614,5.848346909999236,0.625,0.6,5,0,1.6,1 1 1 1 1,1 0 1 0 1,0 1 0 1 0
271,10,10,prac,50,1,40,65,1,7.61852641000041,1.482747730000483,5.872948109998106,0.625,0.6,5,0,1.7,1 1 1 1 1,0 1 0 1 1,1 0 1 0 0
271,11,11,prac,45,1,55,60,3,7.91027630999815,1.7975858299978427,4.287279309999576,0.625,0.6222222222222222,45,0,1.7,9 9 9 9 9,5 6 6 4 7,4 3 3 5 2
271,12,12,prac,80,3,80,97,1,4.19311360999927,1.9080197299990687,2.9705716100015707,0.875,0.8,5,0,1.8,1 1 1 1 1,1 1 1 0 1,0 0 0 1 0
271,13,13,prac,30,2,37,45,1,16.5780949100026,2.3800370299995848,5.6987314099988,0.625,0.6222222222222222,45,0,1.6,9 9 9 9 9,3 5 5 8 7,6 4 4 1 2
271,14,14,prac,20,3,20,4,1,5.4660100100009,6.804969529999653,9.745532219998495,0.125,0.2,5,0,1.7,1 1 1 1 1,0 0 0 0 1,1 1 1 1 0
271,15,15,prac,58,1,67,73,2,7.15182591000121,1.6634873300008621,4.319287809998059,0.625,0.6222222222222222,45,0,1.8,9 9 9 9 9,7 4 6 5 6,2 5 3 4 3
272,1,1,prac,50,1,60,68,3,4.38239177999981,1.9762304800001402,5.62848898000004,0.625,0.6222222222222222,45,0,1.8,9 9 9 9 9,5 6 7 7 3,4 3 2 2 6
272,2,2,prac,60,2,65,75,3,11.8322052799999,2.294059679999691,4.26330157999996,0.625,0.6,5,0,1.8,1 1 1 1 1,1 1 1 0 0,0 0 0 1 1
272,3,3,prac,25,2,25,8,2,11.3821791800001,1.9270420799998647,2.78288567999971,0.125,0.13333333333333333,45,0,1.8,9 9 9 9 9,2 0 1 2 1,7 9 8 7 8
272,4,4,prac,75,2,74,57,1,5.4656511799999,2.6267817799996465,5.72024659999988,0.625,0.6,5,0,1.9,1 1 1 1 1,0 1 1 1 0,1 0 0 0 1
272,5,5,prac,45,2,45,30,1,4.19913717999975,2.5109229799998047,5.14787297999987,0.375,0.37777777777777777,45,0,1.6,9 9 9 9 9,2 4 3 5 3,7 5 6 4 6
272,6,6,prac,50,1,50,50,2,4.1825476800002,2.6438846800001556,3.73108548000005,0.5,0.4,5,1,1.9,1 1 1 1 1,0 1 0 1 0,1 0 1 0 1
272,7,7,prac,35,1,40,50,2,18.0821289800001,2.4804127800000515,4.73812747999978,0.625,0.6222222222222222,45,0,1.7,9 9 9 9 9,9 6 4 4 5,0 3 5 5 4
272,8,8,prac,80,2,80,95,1,4.31578608000041,2.2606977799996457,4.25221759999999,0.875,0.8,5,0,1.6,1 1 1 1 1,1 1 1 0 1,0 0 0 1 0
272,9,9,prac,80,2,80,80,1,7.80223568000019,2.5064020800000435,5.87770767999996,0.875,0.8,5,1,1.8,1 1 1 1 1,0 1 1 1 1,1 0 0 0 0
272,10,10,prac,95,1,95,95,3,7.5022918799998,2.4228946800001268,3.18276977999994,1,1,45,1,2,9 9 9 9 9,9 9 9 9 9,0 0 0 0 0
272,11,11,prac,20,2,20,2,2,3.4991367800003,2.0774524800001473,3.35818598000037,0.125,0.2,5,0,1.8,1 1 1 1 1,1 0 0 0 0,0 1 1 1 1
272,12,12,prac,40,2,40,22,1,4.98236608000002,2.1935170800002197,3.75105200000007,0.375,0.4,5,0,1.9,1 1 1 1 1,1 0 0 1 0,0 1 1 0 1
272,13,13,prac,80,2,88,98,3,4.0157446799999,1.776756480000131,5.01947980000023,0.875,0.8666666666666667,45,0,1.8,9 9 9 9 9,9 9 8 6 7,0 0 1 3 2
272,14,14,prac,60,2,66,78,2,3.03577068000027,2.2389737800001512,4.11889008000026,0.625,0.6,5,0,2,1 1 1 1 1,1 1 0 0 1,0 0 1 1 0
272,15,15,prac,58,1,63,75,1,8.78222718000029,2.876630279999972,6.30076228000007,0.625,0.6222222222222222,45,0,1.6,9 9 9 9 9,5 8 6 5 4,4 1 3 4 5
274,1,1,prac,80,3,80,97,1,5.5322956,2.308522599999833,4.72373920000018,0.875,0.8,5,0,1.6,1 1 1 1 1,0 1 1 1 1,1 0 0 0 0
274,2,2,prac,40,3,23,23,3,13.1688267999998,4.192801999999801,6.42017580000015,0.375,0.4,5,0,1.5,1 1 1 1 1,1 0 0 0 1,0 1 1 1 0
274,3,3,prac,80,3,80,97,1,8.43238050000014,1.4475996000003306,3.56257950000008,0.875,0.8666666666666667,45,0,1.9,9 9 9 9 9,7 8 7 8 9,2 1 2 1 0
274,4,4,prac,60,1,77,78,3,3.5823197000002,2.527488299999959,5.6618747,0.625,0.6,5,0,2,1 1 1 1 1,0 1 0 1 1,1 0 1 0 0
274,5,5,prac,60,1,65,75,2,3.23568760000012,5.476280899999892,8.66946299999995,0.625,0.6,5,0,2,1 1 1 1 1,0 1 0 1 1,1 0 1 0 0
274,6,6,prac,80,1,80,82,2,7.05226029999994,2.656186299999945,4.62046839999994,0.875,0.8,5,1,1.8,1 1 1 1 1,1 1 0 1 1,0 0 1 0 0
274,7,7,prac,100,3,99,99,3,2.94912109999973,3.4602612999999565,4.29867590000026,1,1,45,1,1.7,9 9 9 9 9,9 9 9 9 9,0 0 0 0 0
274,8,8,prac,45,2,37,30,2,5.91904250000016,2.089602200000172,4.17771210000001,0.375,0.37777777777777777,45,0,1.7,9 9 9 9 9,6 4 1 4 2,3 5 8 5 7
274,9,9,prac,20,1,15,2,1,3.79916219999996,1.3428730999999061,5.71930140000018,0.125,0.2,5,0,1.6,1 1 1 1 1,0 1 0 0 0,1 0 1 1 1
274,10,10,prac,60,1,60,60,2,5.16911219999997,2.509564599999976,4.55455830000005,0.5,0.4,5,1,1.8,1 1 1 1 1,1 1 0 0 0,0 0 1 1 1
274,11,11,prac,60,2,60,75,1,4.0491076000003,2.7140076000002864,4.55261970000015,0.625,0.6222222222222222,45,0,1.8,9 9 9 9 9,4 6 7 6 5,5 3 2 3 4
274,12,12,prac,60,1,67,75,1,4.40238130000012,1.9722125000000688,4.93548690000011,0.625,0.6,5,0,1.9,1 1 1 1 1,1 0 0 1 1,0 1 1 0 0
274,13,13,prac,50,2,57,67,2,2.88568370000007,1.8604961999999432,3.79137710000009,0.625,0.6222222222222222,45,0,1.9,9 9 9 9 9,7 4 8 6 3,2 5 1 3 6
274,14,14,prac,26,3,20,10,1,4.06582490000005,1.8434077999997953,3.38326640000014,0.125,0.13333333333333333,45,0,1.6,9 9 9 9 9,5 0 1 0 0,4 9 8 9 9
274,15,15,prac,60,2,76,76,3,5.19910270000014,2.543266600000152,5.59673640000028,0.625,0.6222222222222222,45,0,1.6,9 9 9 9 9,6 4 5 7 6,3 5 4 2 3
285,1,1,prac,70,1,78,86,1,10.1771993800003,2.7817298399995707,4.01335897999979,0.875,0.8,5,0,1.7,1 1 1 1 1,1 0 1 1 1,0 1 0 0 0
285,2,2,prac,60,1,67,76,1,13.8978076800004,2.0907551400000557,2.8735385799996,0.625,0.6,5,0,1.7,1 1 1 1 1,1 0 1 1 0,0 1 0 0 1
285,3,3,prac,38,2,32,20,1,5.14099768000005,1.9027663400001984,2.37516107999954,0.375,0.4,5,0,1.9,1 1 1 1 1,1 0 1 0 0,0 1 0 1 1
285,4,4,prac,58,2,64,75,2,4.14610948000063,1.5720376399999623,4.0745349799995,0.625,0.6222222222222222,45,0,1.8,9 9 9 9 9,4 6 6 5 7,5 3 3 4 2
285,5,5,prac,88,2,85,72,3,14.0338864800001,2.0550439399994502,4.39542948000008,0.875,0.8666666666666667,45,0,1.9,9 9 9 9 9,8 9 9 7 6,1 0 0 2 3
285,6,6,prac,13,2,21,30,2,2.6462428800005,1.774164540000129,6.12793218000024,0.125,0.2,5,0,1.9,1 1 1 1 1,0 0 1 0 0,1 1 0 1 1
285,7,7,prac,57,3,57,75,1,4.80442568000035,1.4043901400000323,5.32210617999954,0.625,0.6222222222222222,45,0,1.7,9 9 9 9 9,5 4 5 7 7,4 5 4 2 2
285,8,8,prac,99,3,99,98,3,3.18858418000036,1.854476540000178,3.22981728000013,1,1,45,1,1.7,9 9 9 9 9,9 9 9 9 9,0 0 0 0 0
285,9,9,prac,61,2,70,77,3,6.21000667999988,5.780818840000393,3.34284578000006,0.625,0.6222222222222222,45,0,1.8,9 9 9 9 9,9 3 4 8 4,0 6 5 1 5
285,10,10,prac,78,1,63,32,1,5.17656758000021,1.2742454399999588,3.77019477999966,0.875,0.8,5,1,1.5,1 1 1 1 1,1 1 1 1 0,0 0 0 0 1
285,11,11,prac,6,3,13,24,3,3.24926857999981,1.6459060399993177,3.57152118000022,0.125,0.13333333333333333,45,0,1.8,9 9 9 9 9,1 1 1 2 1,8 8 8 7 8
285,12,12,prac,80,1,73,65,3,6.78002998000011,1.4112476400005107,5.66113308000013,0.625,0.6,5,0,1.7,1 1 1 1 1,1 1 0 1 0,0 0 1 0 1
285,13,13,prac,56,2,64,73,2,4.51323218000016,2.1822169400006715,5.02234337999971,0.625,0.6,5,0,2,1 1 1 1 1,0 1 0 1 1,1 0 1 0 0
285,14,14,prac,43,2,36,25,3,6.3493607800001,1.8383644399996228,5.4795621799999,0.375,0.37777777777777777,45,0,2,9 9 9 9 9,1 5 3 3 5,8 4 6 6 4
285,15,15,prac,40,1,45,82,1,8.16863488000035,3.4397851399999126,4.20068968000032,0.5,0.4,5,1,1.8,1 1 1 1 1,0 1 1 0 0,1 0 0 1 1
287,1,1,prac,15,2,13,1,2,3.77116034000028,1.7042572199989081,3.7237443399999393,0.125,0.13333333333333333,45,0,1.6,9 9 9 9 9,4 2 0 0 0,5 7 9 9 9
287,2,2,prac,96,3,96,95,3,11.0106104400011,1.8297865199992884,6.700709540000389,1,1,45,1,1.9,9 9 9 9 9,9 9 9 9 9,0 0 0 0 0
287,3,3,prac,58,2,58,75,1,9.69661504000032,1.5467165199997908,4.9899831400007315,0.625,0.6222222222222222,45,0,1.7,9 9 9 9 9,6 7 6 2 7,3 2 3 7 2
287,4,4,prac,40,2,34,24,3,4.95148263999999,1.55729872000029,10.004597139999532,0.375,0.37777777777777777,45,0,1.7,9 9 9 9 9,5 2 5 1 4,4 7 4 8 5
287,5,5,prac,75,1,83,90,2,12.8525381400004,2.014028319999852,12.544689540000945,0.875,0.8,5,0,1.7,1 1 1 1 1,1 0 1 1 1,0 1 0 0 0
287,6,6,prac,80,1,80,80,3,3.69592003999969,1.7712653199996566,5.39434183999947,0.875,0.8,5,1,1.5,1 1 1 1 1,1 1 1 0 1,0 0 0 1 0
287,7,7,prac,60,1,65,76,1,4.34452454000075,1.9491437199994834,4.701351439999598,0.625,0.6,5,0,1.6,1 1 1 1 1,1 0 1 1 0,0 1 0 0 1
287,8,8,prac,83,3,81,65,1,6.9329653399991,2.1133559199997762,5.7895493400001214,0.875,0.8666666666666667,45,0,1.7,9 9 9 9 9,8 7 9 8 7,1 2 0 1 2
287,9,9,prac,20,1,9,5,2,5.63946574000056,1.890656419998777,3.7759567399989464,0.125,0.2,5,0,1.5,1 1 1 1 1,1 0 0 0 0,0 1 1 1 1
287,10,10,prac,40,1,30,25,2,4.8681565400002,2.7247253200002888,6.43517963999966,0.375,0.4,5,0,1.6,1 1 1 1 1,1 1 0 0 0,0 0 1 1 1
287,11,11,prac,60,1,70,76,2,2.62384293999912,1.9460561199994117,6.544254639999963,0.625,0.6,5,0,1.5,1 1 1 1 1,1 1 0 0 1,0 0 1 1 0
287,12,12,prac,55,2,67,72,3,4.40431384000021,1.94646991999889,4.060834439998871,0.625,0.6222222222222222,45,0,1.7,9 9 9 9 9,4 6 5 8 5,5 3 4 1 4
287,13,13,prac,40,1,60,82,1,4.76815243999954,2.6255725800010623,[],0.5,0.4,5,1,1.7,1 1 1 1 1,1 0 0 0 1,0 1 1 1 0
287,14,14,prac,60,1,70,77,3,3.77970273999927,2.7241145199996026,6.16441574000055,0.625,0.6,5,0,1.9,1 1 1 1 1,0 0 1 1 1,1 1 0 0 0
287,15,15,prac,72,3,68,57,2,7.6422254400004,3.514203620000444,5.174024240000108,0.625,0.6222222222222222,45,0,2,9 9 9 9 9,8 4 6 5 5,1 5 3 4 4
288,1,1,prac,60,2,67,75,1,6.280053270000735,1.8226460099999713,7.875922670000364,0.625,0.6,5,0,1.8,1 1 1 1 1,0 0 1 1 1,1 1 0 0 0
288,2,2,prac,45,2,40,30,1,7.735194570000203,1.4992498100000375,6.526528770000368,0.375,0.37777777777777777,45,0,1.9,9 9 9 9 9,3 4 4 3 3,6 5 5 6 6
288,3,3,prac,40,1,31,22,2,10.166617869999754,8.203555810000125,11.935645470000964,0.375,0.4,5,0,1.6,1 1 1 1 1,0 1 0 1 0,1 0 1 0 1
288,4,4,prac,85,2,81,66,1,4.412553270000444,1.5293796099999781,12.120663570000033,0.875,0.8666666666666667,45,0,1.9,9 9 9 9 9,7 8 8 7 9,2 1 1 2 0
288,5,5,prac,57,2,60,73,2,4.693157970000357,1.7238295100005416,3.8830553700004202,0.625,0.6222222222222222,45,0,1.7,9 9 9 9 9,5 5 8 4 6,4 4 1 5 3
288,6,6,prac,17,NA,0,19,2,[],NA,[],0.125,0.13333333333333333,45,0,1.9,9 9 9 9 9,0 2 0 1 3,9 7 9 8 6
288,7,7,prac,54,1,38,10,1,5.434862270000849,1.9825048100001368,5.0153216700000485,0.5,0.4,5,1,1.7,1 1 1 1 1,0 0 0 1 1,1 1 1 0 0
288,8,8,prac,17,2,15,1,2,10.50561807000031,1.8988388099992335,2.9667311700000027,0.125,0.2,5,0,1.7,1 1 1 1 1,0 1 0 0 0,1 0 1 1 1
288,9,9,prac,60,1,66,75,3,10.313917069999661,2.041266109999924,4.95782847000055,0.625,0.6,5,0,2,1 1 1 1 1,0 1 1 0 1,1 0 0 1 0
288,10,10,prac,53,2,60,70,1,9.233343770000374,1.5628985100001955,2.7016906700005165,0.875,0.8,5,0,1.8,1 1 1 1 1,1 1 0 1 1,0 0 1 0 0
288,11,11,prac,48,3,55,65,3,5.501566770000409,3.090904910000063,5.694538669999929,0.625,0.6222222222222222,45,0,1.9,9 9 9 9 9,7 5 6 2 8,2 4 3 7 1
288,12,12,prac,80,2,80,31,1,3.9964408699997875,0.9577824099997088,7.049749870000596,0.875,0.8,5,1,1.6,1 1 1 1 1,1 1 1 0 1,0 0 0 1 0
288,13,13,prac,56,1,65,73,1,4.299288670000351,1.8461118099999112,3.6014971700001297,0.625,0.6222222222222222,45,0,1.5,9 9 9 9 9,4 7 6 5 6,5 2 3 4 3
288,14,14,prac,60,2,65,75,2,5.174460470000213,1.0127230099997178,3.2189962700008437,0.625,0.6,5,0,1.5,1 1 1 1 1,1 1 0 1 0,0 0 1 0 1
288,15,15,prac,100,3,100,99,3,3.6881110700001045,1.4907360100000915,2.343108970000685,1,1,45,1,1.7,9 9 9 9 9,9 9 9 9 9,0 0 0 0 0
291,1,1,prac,100,3,99,98,3,3.11296421999941,1.2885555600014413,3.80851802000143,1,1,45,1,1.6,9 9 9 9 9,9 9 9 9 9,0 0 0 0 0
291,2,2,prac,95,1,90,78,2,5.45159332000003,1.3326467600008982,5.28118001999974,0.875,0.8,5,0,1.9,1 1 1 1 1,1 1 0 1 1,0 0 1 0 0
291,3,3,prac,45,1,45,46,3,5.49329282000053,1.6989740600001824,3.26698702000067,0.5,0.4,5,1,1.8,1 1 1 1 1,1 0 0 1 0,0 1 1 0 1
291,4,4,prac,60,1,65,76,2,5.82665862000067,1.3554753600010372,3.3600937200008,0.625,0.6,5,0,1.9,1 1 1 1 1,0 1 1 1 0,1 0 0 0 1
291,5,5,prac,95,3,95,77,1,3.66800802000034,1.1994901600010053,3.54311240000152,0.875,0.8666666666666667,45,0,1.7,9 9 9 9 9,8 7 8 8 8,1 2 1 1 1
291,6,6,prac,70,1,70,55,1,3.88471672000014,1.3004925600007482,4.00492761999885,0.625,0.6,5,0,2,1 1 1 1 1,0 1 1 1 0,1 0 0 0 1
291,7,7,prac,65,2,65,49,1,5.35786431999895,1.5292591600000378,3.49609502000112,0.625,0.6222222222222222,45,0,1.6,9 9 9 9 9,6 7 7 3 5,3 2 2 6 4
291,8,8,prac,20,2,20,4,1,3.66267341999992,2.0380510600007256,3.00219392000054,0.125,0.2,5,0,2,1 1 1 1 1,1 0 0 0 0,0 1 1 1 1
291,9,9,prac,5,2,5,21,2,3.54298182000002,1.8907560600009674,1.72774822000065,0.125,0.13333333333333333,45,0,1.9,9 9 9 9 9,2 2 1 0 1,7 7 8 9 8
291,10,10,prac,60,1,70,75,3,6.4580424199994,2.320973060000142,4.49343961999966,0.625,0.6,5,0,1.6,1 1 1 1 1,0 1 1 1 0,1 0 0 0 1
291,11,11,prac,85,2,85,85,3,5.26232801999959,2.3888877600011256,3.77880882000045,0.875,0.8,5,1,1.7,1 1 1 1 1,1 1 0 1 1,0 0 1 0 0
291,12,12,prac,65,3,65,50,2,3.35423942000034,1.3876285600008487,4.86634832000072,0.625,0.6222222222222222,45,0,1.9,9 9 9 9 9,7 6 4 6 5,2 3 5 3 4
291,13,13,prac,35,2,35,50,3,6.36261282000032,1.3130580600009125,2.32429242000035,0.375,0.37777777777777777,45,0,2,9 9 9 9 9,5 5 4 1 2,4 4 5 8 7
291,14,14,prac,25,1,35,40,3,3.45475461999922,1.4072123600008126,3.15206802000012,0.375,0.4,5,0,1.7,1 1 1 1 1,1 0 0 0 1,0 1 1 1 0
291,15,15,prac,60,2,60,77,3,3.91807551999955,1.7333374599993476,2.87321532000169,0.625,0.6222222222222222,45,0,1.5,9 9 9 9 9,4 7 8 5 4,5 2 1 4 5
292,1,1,prac,33,1,50,50,3,14.7728682299994,8.146373190001214,9.38714312999946,0.625,0.6,5,0,1.9,1 1 1 1 1,1 1 0 0 1,0 0 1 1 0
292,2,2,prac,5,3,10,20,3,11.4141297300002,2.2830585900001097,3.97296802999972,0.125,0.13333333333333333,45,0,1.7,9 9 9 9 9,2 1 0 1 2,7 8 9 8 7
292,3,3,prac,20,1,10,2,1,6.27667272999952,2.1659748899992337,2.49112702999992,0.125,0.2,5,0,1.8,1 1 1 1 1,0 0 0 1 0,1 1 1 0 1
292,4,4,prac,92,3,90,77,1,4.38723262999883,2.086834490000001,3.32016332999956,0.875,0.8666666666666667,45,0,1.6,9 9 9 9 9,8 6 8 8 9,1 3 1 1 0
292,5,5,prac,60,1,70,75,2,16.7231253299997,2.132991790000233,4.36411452999982,0.625,0.6,5,0,1.9,1 1 1 1 1,1 1 0 1 0,0 0 1 0 1
292,6,6,prac,40,1,30,25,2,4.45980102999965,1.9827341899999738,9.38055782999891,0.375,0.4,5,0,1.7,1 1 1 1 1,0 1 1 0 0,1 0 0 1 1
292,7,7,prac,45,3,35,29,3,3.73467652999989,2.7644952900000135,4.88420422999934,0.375,0.37777777777777777,45,0,1.8,9 9 9 9 9,1 5 5 6 0,8 4 4 3 9
292,8,8,prac,47,3,50,64,1,7.06848112999887,1.7720180899996194,4.29596972999934,0.625,0.6222222222222222,45,0,1.6,9 9 9 9 9,6 4 7 6 5,3 5 2 3 4
292,9,9,prac,60,1,65,75,1,3.96315363000031,1.7322616900009962,3.10012212999936,0.625,0.6,5,0,1.6,1 1 1 1 1,1 1 0 0 1,0 0 1 1 0
292,10,10,prac,40,1,40,40,2,4.62159813000017,1.5322723900007986,3.20174803000009,0.5,0.4,5,1,1.7,1 1 1 1 1,0 1 0 0 1,1 0 1 1 0
292,11,11,prac,80,1,85,95,1,3.8631438299999,1.8329717899996467,4.63612213000033,0.875,0.8,5,0,1.5,1 1 1 1 1,1 1 1 0 1,0 0 0 1 0
292,12,12,prac,60,2,68,76,2,4.79657123000015,1.9802697900004205,2.50786112999958,0.625,0.6222222222222222,45,0,1.6,9 9 9 9 9,3 6 6 7 6,6 3 3 2 3
292,13,13,prac,100,3,99,98,3,3.40757082999971,1.7048199900000327,3.56868545999987,1,1,45,1,1.9,9 9 9 9 9,9 9 9 9 9,0 0 0 0 0
292,14,14,prac,77,2,70,60,3,6.40168872999948,1.8474584900013724,7.76694032999967,0.625,0.6222222222222222,45,0,1.6,9 9 9 9 9,5 7 6 7 3,4 2 3 2 6
292,15,15,prac,80,1,79,78,1,10.0271910299998,2.155781489999754,3.22959702999924,0.875,0.8,5,1,1.6,1 1 1 1 1,1 0 1 1 1,0 1 0 0 0
297,1,1,prac,40,3,30,25,2,5.23046125000019,2.120893249999881,6.47903784999971,0.375,0.4,5,0,1.5,1 1 1 1 1,0 0 0 1 1,1 1 1 0 0
297,2,2,prac,80,3,85,96,2,5.18710185000009,2.6141975499999717,4.79636464999976,0.875,0.8,5,0,1.7,1 1 1 1 1,1 1 0 1 1,0 0 1 0 0
297,3,3,prac,25,2,35,41,2,9.05468545000031,1.7964133499999662,4.00658955000017,0.625,0.6222222222222222,45,0,1.6,9 9 9 9 9,8 5 5 6 4,1 4 4 3 5
297,4,4,prac,40,3,40,82,1,4.09644545000037,3.249025950000032,4.83071464999966,0.5,0.4,5,1,1.8,1 1 1 1 1,0 1 0 0 1,1 0 1 1 0
297,5,5,prac,80,3,80,32,1,5.05493875000047,2.372666549999849,4.08867584999962,0.875,0.8,5,1,1.6,1 1 1 1 1,1 1 1 0 1,0 0 0 1 0
297,6,6,prac,20,3,10,4,3,5.04316265000034,2.1885971500005326,5.10559124999963,0.125,0.2,5,0,1.9,1 1 1 1 1,0 0 0 0 1,1 1 1 1 0
297,7,7,prac,65,2,70,49,1,5.80160365000029,1.5407585500001915,4.69687154999974,0.625,0.6222222222222222,45,0,1.9,9 9 9 9 9,6 5 6 8 3,3 4 3 1 6
297,8,8,prac,65,2,50,50,3,6.94338925000011,3.4909426500003065,5.25108384999976,0.625,0.6222222222222222,45,0,1.7,9 9 9 9 9,5 5 7 8 3,4 4 2 1 6
297,9,9,prac,10,3,17,25,2,2.97621775000016,2.4068811500001175,3.52466294999977,0.125,0.13333333333333333,45,0,1.7,9 9 9 9 9,1 0 4 1 0,8 9 5 8 9
297,10,10,prac,60,3,60,75,1,4.15821265000022,2.7720829499999127,3.59014734999982,0.625,0.6,5,0,1.7,1 1 1 1 1,1 1 1 0 0,0 0 0 1 1
297,11,11,prac,60,3,75,75,3,3.2055268500003,3.0579859499998747,8.23913664999964,0.625,0.6,5,0,1.5,1 1 1 1 1,1 0 0 1 1,0 1 1 0 0
297,12,12,prac,100,3,98,98,3,2.49506465000059,3.0948016500005906,4.05383464999977,1,1,45,1,1.9,9 9 9 9 9,9 9 9 9 9,0 0 0 0 0
297,13,13,prac,45,2,40,30,2,7.44644074999997,3.679935950000072,3.52188254999965,0.375,0.37777777777777777,45,0,1.5,9 9 9 9 9,4 2 3 2 6,5 7 6 7 3
297,14,14,prac,85,3,95,99,3,6.91001915000015,3.7574279499999648,4.41702694999913,0.875,0.8666666666666667,45,0,1.8,9 9 9 9 9,9 7 8 8 7,0 2 1 1 2
297,15,15,prac,60,3,65,75,2,3.12962564999998,2.2390204500002255,3.45259754999961,0.625,0.6,5,0,1.8,1 1 1 1 1,1 1 0 1 0,0 0 1 0 1
306,1,1,prac,50,2,0,67,1,8.365610440000182,2.6097692400003325,[],0.625,0.6222222222222222,45,0,1.7,9 9 9 9 9,7 4 6 7 4,2 5 3 2 5
306,2,2,prac,100,3,0,99,3,6.202328840000064,2.476755640000192,3.280767239999932,1,1,45,1,1.9,9 9 9 9 9,9 9 9 9 9,0 0 0 0 0
306,3,3,prac,40,2,0,23,1,16.198902139999973,5.442870039999889,3.313265240000419,0.375,0.4,5,0,1.9,1 1 1 1 1,0 1 0 0 1,1 0 1 1 0
306,4,4,prac,61,2,0,79,2,16.86885334000044,2.4390440399997715,2.525301440000476,0.625,0.6222222222222222,45,0,1.7,9 9 9 9 9,7 5 3 7 6,2 4 6 2 3
306,5,5,prac,60,3,0,75,2,17.94877914000017,1.7941042400002516,10.165717740000673,0.625,0.6,5,0,1.6,1 1 1 1 1,0 1 0 1 1,1 0 1 0 0
306,6,6,prac,75,3,0,93,3,7.985681339999701,2.1248771400000805,2.2675275400001738,0.875,0.8,5,0,1.9,1 1 1 1 1,1 1 1 0 1,0 0 0 1 0
306,7,7,prac,92,1,85,77,2,13.0689003399998,1.460402239999894,5.998781940000299,0.875,0.8666666666666667,45,0,1.8,9 9 9 9 9,9 8 6 9 7,0 1 3 0 2
306,8,8,prac,35,1,0,51,1,10.748982739999974,1.5299892399998498,0.8042142400004195,0.375,0.37777777777777777,45,0,1.6,9 9 9 9 9,2 5 5 2 3,7 4 4 7 6
306,9,9,prac,59,1,70,75,3,9.465648939999937,2.027008040000055,10.491926039999726,0.625,0.6222222222222222,45,0,1.9,9 9 9 9 9,4 4 6 7 7,5 5 3 2 2
306,10,10,prac,25,3,20,7,2,4.065753140000197,1.4108473400001458,13.116700600000058,0.125,0.2,5,0,1.7,1 1 1 1 1,0 0 0 0 1,1 1 1 1 0
306,11,11,prac,23,NA,0,85,3,[],NA,[],0.625,0.6,5,0,2,1 1 1 1 1,1 0 1 0 1,0 1 0 1 0
306,12,12,prac,20,2,20,3,2,8.782376740000018,1.6608274400000482,2.197595540000293,0.125,0.13333333333333333,45,0,1.7,9 9 9 9 9,1 2 2 0 1,8 7 7 9 8
306,13,13,prac,33,2,33,74,1,9.982490339999913,1.4933210399999552,4.290453739999975,0.5,0.4,5,1,1.6,1 1 1 1 1,1 0 1 0 0,0 1 0 1 1
306,14,14,prac,67,1,67,50,1,6.982442340000034,3.5104205399998136,17.631990639999913,0.625,0.6,5,0,1.5,1 1 1 1 1,0 1 1 0 1,1 0 0 1 0
306,15,15,prac,80,1,80,80,1,9.402362939999875,3.809830939999756,6.568795939999745,0.875,0.8,5,1,1.6,1 1 1 1 1,1 1 1 1 0,0 0 0 0 1
307,1,1,prac,30,2,37,48,2,10.2206575999999,2.879903000000013,4.9814637999998,0.375,0.37777777777777777,45,0,1.5,9 9 9 9 9,3 3 2 4 5,6 6 7 5 4
307,2,2,prac,46,1,60,63,2,7.93030760000011,2.6242301000002044,7.46468609999965,0.625,0.6,5,0,1.9,1 1 1 1 1,0 1 1 1 0,1 0 0 0 1
307,3,3,prac,60,2,70,75,2,13.7810929999996,2.897638299999926,3.42153400000007,0.625,0.6222222222222222,45,0,1.6,9 9 9 9 9,5 8 5 6 4,4 1 4 3 5
307,4,4,prac,99,3,99,99,3,11.5773988000001,2.149113699999816,4.06826890000002,1,1,45,1,1.9,9 9 9 9 9,9 9 9 9 9,0 0 0 0 0
307,5,5,prac,40,3,40,40,3,9.37715879999996,2.341884499999651,2.93177129999958,0.5,0.4,5,1,2,1 1 1 1 1,1 1 0 0 0,0 0 1 1 1
307,6,6,prac,68,3,68,50,1,7.93029780000006,2.6577872999996544,7.39118669999971,0.625,0.6222222222222222,45,0,2,9 9 9 9 9,5 6 6 5 6,4 3 3 4 3
307,7,7,prac,70,2,55,55,3,6.78850630000034,2.0573350999998183,12.5118917,0.625,0.6,5,0,2,1 1 1 1 1,0 1 1 1 0,1 0 0 0 1
307,8,8,prac,45,2,62,62,3,5.7182743999997,1.6492302999999993,3.30324529999962,0.625,0.6222222222222222,45,0,1.7,9 9 9 9 9,6 7 7 4 4,3 2 2 5 5
307,9,9,prac,85,3,85,22,1,7.78029620000007,2.173597699998936,6.83065979999901,0.875,0.8,5,1,1.7,1 1 1 1 1,1 1 1 1 0,0 0 0 0 1
307,10,10,prac,15,3,5,1,3,5.83837260000018,2.3627763999993476,3.5374297999997,0.125,0.2,5,0,1.7,1 1 1 1 1,1 0 0 0 0,0 1 1 1 1
307,11,11,prac,90,3,81,72,3,7.17188139999962,2.099599300000591,10.3833876999997,0.875,0.8,5,0,1.8,1 1 1 1 1,0 1 1 1 1,1 0 0 0 0
307,12,12,prac,92,3,84,74,3,6.85461529999884,1.4210835000003499,6.16608100000121,0.875,0.8666666666666667,45,0,1.7,9 9 9 9 9,9 9 7 8 6,0 0 2 1 3
307,13,13,prac,11,3,11,26,1,3.20725100000072,2.055614500000047,3.90768970000045,0.125,0.13333333333333333,45,0,1.6,9 9 9 9 9,1 3 1 0 1,8 6 8 9 8
307,14,14,prac,53,2,57,70,1,5.98904589999984,2.1631939999997485,4.76146309999967,0.625,0.6,5,0,1.8,1 1 1 1 1,0 1 0 1 1,1 0 1 0 0
307,15,15,prac,32,1,42,47,1,6.93024560000049,2.582496500000161,4.26352510000015,0.375,0.4,5,0,1.5,1 1 1 1 1,0 0 1 0 1,1 1 0 1 0
308,1,1,prac,10,2,15,25,2,9.871646940000574,1.7599657199998546,6.191829239999606,0.125,0.13333333333333333,45,0,2,9 9 9 9 9,3 1 0 1 1,6 8 9 8 8
308,2,2,prac,89,2,88,73,1,9.783302439999716,2.479953220000425,8.309912340000665,0.875,0.8666666666666667,45,0,1.7,9 9 9 9 9,8 9 5 8 9,1 0 4 1 0
308,3,3,prac,40,1,35,22,1,15.327876740000647,1.8490734200004226,12.702267640000173,0.375,0.4,5,0,1.6,1 1 1 1 1,0 1 0 0 1,1 0 1 1 0
308,4,4,prac,80,1,80,80,3,19.117619040000136,1.7881471200007582,5.373934239999471,0.875,0.8,5,1,1.9,1 1 1 1 1,1 1 1 0 1,0 0 0 1 0
308,5,5,prac,55,2,59,70,2,10.968951939999897,1.782418019999568,4.851543939999829,0.625,0.6222222222222222,45,0,1.6,9 9 9 9 9,6 3 7 4 8,3 6 2 5 1
308,6,6,prac,62,NA,0,83,2,[],NA,[],0.625,0.6,5,0,1.8,1 1 1 1 1,0 1 0 1 1,1 0 1 0 0
308,7,7,prac,98,3,98,99,3,7.0046379399991565,2.49753827999848,8.933707439999125,1,1,45,1,1.9,9 9 9 9 9,9 9 9 9 9,0 0 0 0 0
308,8,8,prac,44,2,41,28,1,7.549425839999458,1.7715053199999602,9.070990140000504,0.375,0.37777777777777777,45,0,1.7,9 9 9 9 9,3 2 4 2 6,6 7 5 7 3
308,9,9,prac,15,2,8,1,3,9.143715040000643,6.766868020000402,7.9477017400004115,0.125,0.2,5,0,2,1 1 1 1 1,0 0 0 1 0,1 1 1 0 1
308,10,10,prac,39,1,40,80,1,7.0713476400005675,2.721377320001011,7.743562640001073,0.5,0.4,5,1,1.9,1 1 1 1 1,1 0 0 1 0,0 1 1 0 1
308,11,11,prac,64,2,65,49,1,5.421656040000926,1.424630720001005,4.429695439999705,0.625,0.6222222222222222,45,0,1.9,9 9 9 9 9,4 8 6 5 5,5 1 3 4 4
308,12,12,prac,60,1,69,75,3,12.469180439999946,2.2060253199997533,10.498704440001347,0.625,0.6,5,0,1.9,1 1 1 1 1,1 1 0 0 1,0 0 1 1 0
308,13,13,prac,60,1,62,75,1,6.197166240001025,2.0136905199997273,7.022431139999753,0.625,0.6,5,0,1.7,1 1 1 1 1,0 0 1 1 1,1 1 0 0 0
308,14,14,prac,80,1,89,98,3,6.080049840001266,3.3659422199998517,8.591703840000264,0.875,0.8,5,0,2,1 1 1 1 1,0 1 1 1 1,1 0 0 0 0
308,15,15,prac,67,2,61,50,3,5.6216740400013805,1.4674236199998631,11.585393840000506,0.625,0.6222222222222222,45,0,1.6,9 9 9 9 9,7 6 3 6 6,2 3 6 3 3
315,1,1,prac,80,3,20,19,3,5.49908671999992,2.2923881199999414,7.53276241999947,0.125,0.2,5,0,1.6,1 1 1 1 1,0 0 0 1 0,1 1 1 0 1
315,2,2,prac,55,2,60,72,3,5.24909952000007,2.444035519999943,3.53064791999986,0.625,0.6222222222222222,45,0,1.6,9 9 9 9 9,4 5 7 5 7,5 4 2 4 2
315,3,3,prac,80,3,80,80,2,6.31577212000002,2.2595833200002744,3.9278765199997,0.875,0.8,5,1,1.9,1 1 1 1 1,0 1 1 1 1,1 0 0 0 0
315,4,4,prac,60,3,60,78,2,12.7655762199997,1.9298881200002143,3.74721241999987,0.625,0.6,5,0,1.8,1 1 1 1 1,0 1 0 1 1,1 0 1 0 0
315,5,5,prac,60,3,70,75,3,6.88240571999995,2.2937987199998133,5.05915202000006,0.625,0.6,5,0,1.7,1 1 1 1 1,1 1 0 0 1,0 0 1 1 0
315,6,6,prac,60,3,60,75,1,6.54901892000044,2.6301168199997846,4.18198321999989,0.625,0.6,5,0,1.7,1 1 1 1 1,0 1 0 1 1,1 0 1 0 0
315,7,7,prac,40,2,40,22,1,5.61570721999988,2.2607913200004077,4.52628972000002,0.375,0.4,5,0,1.9,1 1 1 1 1,0 0 1 1 0,1 1 0 0 1
315,8,8,prac,50,1,45,33,2,6.31562032000011,1.5942136200001187,3.02259662000006,0.375,0.37777777777777777,45,0,1.9,9 9 9 9 9,3 4 6 1 3,6 5 3 8 6
315,9,9,prac,40,2,40,40,2,5.56579292000015,2.0097770199995466,3.32957972000031,0.5,0.4,5,1,1.8,1 1 1 1 1,1 0 0 1 0,0 1 1 0 1
315,10,10,prac,100,3,99,99,3,2.93241962000002,1.8273451200002455,5.68601361999981,1,1,45,1,1.8,9 9 9 9 9,9 9 9 9 9,0 0 0 0 0
315,11,11,prac,70,1,70,55,1,5.70231042000023,2.405873220000103,3.98857601999998,0.625,0.6222222222222222,45,0,1.6,9 9 9 9 9,3 5 7 7 6,6 4 2 2 3
315,12,12,prac,70,2,70,86,1,4.08250241999986,3.3275034200000846,3.91869830000041,0.875,0.8666666666666667,45,0,1.5,9 9 9 9 9,9 8 6 7 9,0 1 3 2 0
315,13,13,prac,10,2,10,26,1,3.99900462000051,2.0275215200003913,3.51856370000041,0.125,0.13333333333333333,45,0,1.9,9 9 9 9 9,1 1 2 1 1,8 8 7 8 8
315,14,14,prac,80,3,80,95,3,7.56567941999992,2.5606630200004474,4.0640416199999,0.875,0.8,5,0,1.6,1 1 1 1 1,1 1 1 1 0,0 0 0 0 1
315,15,15,prac,55,1,60,73,2,3.74913951999997,2.2103950200003055,5.30189431999997,0.625,0.6222222222222222,45,0,1.8,9 9 9 9 9,6 2 5 8 7,3 7 4 1 2
320,1,1,prac,53,2,60,70,3,5.2027546700001,2.107912909999868,10.5347189700005,0.625,0.6,5,0,1.6,1 1 1 1 1,0 0 1 1 1,1 1 0 0 0
320,2,2,prac,85,3,89,99,3,6.74137076999978,1.9880059100005383,11.5265414400001,0.875,0.8666666666666667,45,0,1.7,9 9 9 9 9,7 8 9 7 8,2 1 0 2 1
320,3,3,prac,83,2,83,85,3,11.7857237699991,2.933242610000889,5.66192137000053,1,1,45,1,1.9,9 9 9 9 9,9 9 9 9 9,0 0 0 0 0
320,4,4,prac,50,3,50,6,1,4.54640887000005,2.2661656099999163,9.5875327699996,0.5,0.4,5,1,1.8,1 1 1 1 1,0 0 0 1 1,1 1 1 0 0
320,5,5,prac,50,3,55,66,3,5.73833147000005,2.2807502099994963,5.0234742699995,0.625,0.6222222222222222,45,0,1.8,9 9 9 9 9,8 5 3 6 6,1 4 6 3 3
320,6,6,prac,51,2,60,67,3,8.90542716999971,1.9741637100005391,2.48392907000016,0.875,0.8,5,0,2,1 1 1 1 1,1 1 1 0 1,0 0 0 1 0
320,7,7,prac,58,2,50,41,1,7.42984707000051,1.8461190099997111,3.96898613999929,0.375,0.37777777777777777,45,0,1.9,9 9 9 9 9,1 2 5 5 4,8 7 4 4 5
320,8,8,prac,60,2,60,45,1,4.23268666999866,2.4229812100002164,7.93270596999992,0.375,0.4,5,0,1.9,1 1 1 1 1,0 0 0 1 1,1 1 1 0 0
320,9,9,prac,60,1,25,11,1,6.48804916999961,2.3633824100006677,5.3237761700002,0.875,0.8,5,1,1.8,1 1 1 1 1,1 0 1 1 1,0 1 0 0 0
320,10,10,prac,75,2,68,60,2,3.37138176999906,2.9002222099998107,4.27013636999891,0.625,0.6222222222222222,45,0,1.8,9 9 9 9 9,5 6 6 3 8,4 3 3 6 1
320,11,11,prac,68,3,65,50,1,9.49818886999856,1.9887091099999452,4.42400127000019,0.625,0.6222222222222222,45,0,1.9,9 9 9 9 9,6 4 5 6 7,3 5 4 3 2
320,12,12,prac,60,1,60,76,1,4.22641126999952,2.9763529399997424,4.90638657,0.625,0.6,5,0,1.6,1 1 1 1 1,0 0 1 1 1,1 1 0 0 0
320,13,13,prac,50,1,50,66,2,5.34131297000022,2.189738039999611,5.0107933700001,0.625,0.6,5,0,2,1 1 1 1 1,0 1 1 0 1,1 0 0 1 0
320,14,14,prac,80,1,65,19,3,6.702753569999,2.0303148100001636,9.33958426999925,0.125,0.2,5,0,1.6,1 1 1 1 1,1 0 0 0 0,0 1 1 1 1
320,15,15,prac,16,1,12,1,1,9.24373197000114,1.9662524099994698,4.51517297000009,0.125,0.13333333333333333,45,0,1.6,9 9 9 9 9,2 2 1 0 1,7 7 8 9 8
322,1,1,prac,60,3,71,77,3,1.6551,2.64687,1.24673,0.625,0.6,5,0,1.7,1 1 1 1 1,1 1 0 0 1,0 0 1 1 0
322,2,2,prac,89,3,89,73,1,7.74368,2.43346,7.59806,0.875,0.8666666666666667,45,0,1.7,9 9 9 9 9,7 8 9 7 8,2 1 0 2 1
322,3,3,prac,17,2,10,1,3,8.55196,2.53952,3.83102,0.125,0.13333333333333333,45,0,1.7,9 9 9 9 9,2 1 2 0 1,7 8 7 9 8
322,4,4,prac,60,3,60,75,1,6.5895,1.78791,5.55415,0.625,0.6,5,0,1.6,1 1 1 1 1,1 1 0 0 1,0 0 1 1 0
322,5,5,prac,40,3,35,25,1,6.1043,1.96349,4.99672,0.375,0.4,5,0,1.8,1 1 1 1 1,0 0 0 1 1,1 1 1 0 0
322,6,6,prac,90,2,75,46,1,5.15989,2.44072,6.28439,0.875,0.8,5,1,1.9,1 1 1 1 1,0 1 1 1 1,1 0 0 0 0
322,7,7,prac,65,3,60,48,2,6.285,2.33114,6.85439,0.625,0.6222222222222222,45,0,2,9 9 9 9 9,8 5 5 5 5,1 4 4 4 4
322,8,8,prac,10,2,16,25,2,3.52214,1.408,4.29043,0.125,0.2,5,0,1.6,1 1 1 1 1,0 0 0 1 0,1 1 1 0 1
322,9,9,prac,60,2,66,76,2,9.98835,1.82978,3.66594,0.625,0.6,5,0,1.8,1 1 1 1 1,1 1 0 1 0,0 0 1 0 1
322,10,10,prac,100,3,99,99,3,3.5128,2.20794,5.78042,1,1,45,1,1.8,9 9 9 9 9,9 9 9 9 9,0 0 0 0 0
322,11,11,prac,60,3,66,75,1,4.64653,2.19078,7.5709,0.625,0.6222222222222222,45,0,1.7,9 9 9 9 9,6 5 6 5 6,3 4 3 4 3
322,12,12,prac,40,3,31,22,1,3.78481,2.43869,6.37694,0.375,0.37777777777777777,45,0,1.6,9 9 9 9 9,3 4 4 3 3,6 5 5 6 6
322,13,13,prac,80,2,91,96,3,5.6297,3.3546,9.45733,0.875,0.8,5,0,1.5,1 1 1 1 1,1 1 1 1 0,0 0 0 0 1
322,14,14,prac,60,3,65,77,3,5.76845,3.78316,9.16753,0.625,0.6222222222222222,45,0,1.9,9 9 9 9 9,6 5 5 6 6,3 4 4 3 3
322,15,15,prac,40,2,45,82,1,5.28916,3.3284,3.87106,0.5,NA,5,1,1.8,1 1 1 1 1,1 1 0 0 0,0 0 1 1 1
323,1,1,prac,50,2,44,35,2,13.6143497200001,2.0982823599997573,5.53707881999981,0.375,0.4,5,0,1.8,1 1 1 1 1,0 0 1 1 0,1 1 0 0 1
323,2,2,prac,88,3,88,70,2,9.16722422000112,1.805144159999145,8.28518321999945,0.875,0.8666666666666667,45,0,1.9,9 9 9 9 9,9 7 7 7 9,0 2 2 2 0
323,3,3,prac,14,3,14,1,3,6.52176591999978,2.424450959999376,5.38497081999958,0.125,0.13333333333333333,45,0,1.6,9 9 9 9 9,1 0 1 1 3,8 9 8 8 6
323,4,4,prac,59,2,59,74,2,5.83497592000003,2.340728759999365,3.82189612000002,0.625,0.6222222222222222,45,0,1.7,9 9 9 9 9,6 7 6 5 4,3 2 3 4 5
323,5,5,prac,41,1,41,26,1,10.0138900200009,2.3835781599991606,5.45793552000032,0.375,0.37777777777777777,45,0,1.9,9 9 9 9 9,3 2 3 4 5,6 7 6 5 4
323,6,6,prac,70,1,70,70,1,7.27479552000113,1.830479760000344,3.37366931999986,0.875,0.8,5,1,1.7,1 1 1 1 1,1 0 1 1 1,0 1 0 0 0
323,7,7,prac,70,1,61,55,3,5.11326792000091,1.6741990599994097,3.63991501999953,0.625,0.6,5,0,1.6,1 1 1 1 1,0 1 1 0 1,1 0 0 1 0
323,8,8,prac,65,1,50,50,1,14.5612201200011,2.1166331600006743,3.76246252000055,0.625,0.6222222222222222,45,0,1.8,9 9 9 9 9,5 6 6 4 7,4 3 3 5 2
323,9,9,prac,70,1,62,55,2,4.5965085200005,1.9571012600008544,5.16621742000007,0.625,0.6,5,0,1.7,1 1 1 1 1,0 1 0 1 1,1 0 1 0 0
323,10,10,prac,75,1,75,90,1,4.42435911999928,2.296880859999874,4.9077061199996,0.875,0.8,5,0,1.6,1 1 1 1 1,0 1 1 1 1,1 0 0 0 0
323,11,11,prac,93,2,92,91,3,8.78533942000104,2.5158816600005594,5.05358812000031,1,1,45,1,1.6,9 9 9 9 9,9 9 9 9 9,0 0 0 0 0
323,12,12,prac,75,1,75,60,1,3.28038392000053,2.024142260001099,5.96079002000079,0.125,0.2,5,0,1.6,1 1 1 1 1,0 1 0 0 0,1 0 1 1 1
323,13,13,prac,29,1,29,29,2,6.68917671999952,2.374338960001296,3.62308571999984,0.5,0.4,5,1,2,1 1 1 1 1,1 1 0 0 0,0 0 1 1 1
323,14,14,prac,56,2,68,71,3,4.84315172000061,2.1239360600011423,10.2256759200009,0.625,0.6222222222222222,45,0,1.5,9 9 9 9 9,4 7 7 6 4,5 2 2 3 5
323,15,15,prac,55,2,55,70,1,8.40533411999968,3.4822641599994313,6.47652222000033,0.625,0.6,5,0,2,1 1 1 1 1,1 1 1 0 0,0 0 0 1 1
324,1,1,prac,85,2,77,51,1,4.30146186000093,2.249010580000686,7.6832793600006,0.875,0.8666666666666667,45,0,1.7,9 9 9 9 9,7 6 9 8 9,2 3 0 1 0
324,2,2,prac,67,2,65,52,3,7.51623805999952,1.6468339799994283,5.46870986000067,0.625,0.6222222222222222,45,0,1.6,9 9 9 9 9,5 5 7 4 7,4 4 2 5 2
324,3,3,prac,70,2,50,26,1,6.11424205999992,1.1831892800000787,6.83451226000125,0.875,0.8,5,1,1.6,1 1 1 1 1,1 0 1 1 1,0 1 0 0 0
324,4,4,prac,45,2,45,43,3,3.07132895999985,1.323951079998551,5.39832105999994,0.5,0.4,5,1,1.9,1 1 1 1 1,0 1 1 0 0,1 0 0 1 1
324,5,5,prac,44,2,35,28,2,10.5390156599997,1.6823964800014437,4.47122752000087,0.375,0.4,5,0,1.5,1 1 1 1 1,1 0 1 0 0,0 1 0 1 1
324,6,6,prac,10,2,20,28,1,4.2097673599992,1.3575507799996558,6.53042266000102,0.125,0.2,5,0,1.5,1 1 1 1 1,0 0 0 0 1,1 1 1 1 0
324,7,7,prac,100,3,100,99,3,5.0540143599992,1.4618619800012311,9.02728306000063,1,1,45,1,1.8,9 9 9 9 9,9 9 9 9 9,0 0 0 0 0
324,8,8,prac,99,2,95,82,2,9.51382086000012,1.8327972800007046,4.73795336000148,0.875,0.8,5,0,1.5,1 1 1 1 1,0 1 1 1 1,1 0 0 0 0
324,9,9,prac,15,2,10,1,1,3.60404955999911,1.49634308000077,4.30419816000085,0.125,0.13333333333333333,45,0,1.6,9 9 9 9 9,3 0 1 1 1,6 9 8 8 8
324,10,10,prac,55,2,67,72,3,4.91326696000033,1.2488997800001016,4.84193016000154,0.625,0.6,5,0,1.7,1 1 1 1 1,1 1 0 0 1,0 0 1 1 0
324,11,11,prac,60,2,68,76,2,5.66825645999961,1.2557246799997301,4.94324656000117,0.625,0.6,5,0,1.8,1 1 1 1 1,0 1 0 1 1,1 0 1 0 0
324,12,12,prac,45,2,49,63,2,5.88837265999973,1.3662867799994274,5.32643286000075,0.625,0.6222222222222222,45,0,1.6,9 9 9 9 9,6 6 6 5 5,3 3 3 4 4
324,13,13,prac,50,1,45,35,2,3.47643355999935,1.333768680000503,3.53791986000124,0.375,0.37777777777777777,45,0,1.8,9 9 9 9 9,3 3 1 4 6,6 6 8 5 3
324,14,14,prac,70,2,70,52,1,6.72929185999965,1.3967009799998777,8.60746756000026,0.625,0.6222222222222222,45,0,1.6,9 9 9 9 9,2 7 7 7 5,7 2 2 2 4
324,15,15,prac,55,2,57,73,1,8.48863835999964,1.4832527799990203,4.18995606000135,0.625,0.6,5,0,1.8,1 1 1 1 1,0 1 1 1 0,1 0 0 0 1
329,1,1,prac,60,3,60,75,1,4.80431842999951,4.287389289999737,[],0.625,0.6,5,0,1.5,1 1 1 1 1,0 1 1 0 1,1 0 0 1 0
329,2,2,prac,80,2,87,95,3,4.02642903000014,2.5413058900003307,10.702066629999536,0.875,0.8,5,0,1.9,1 1 1 1 1,0 1 1 1 1,1 0 0 0 0
329,3,3,prac,40,2,40,22,3,16.7006457300004,2.113239390000672,9.346314429999438,0.375,0.4,5,0,1.9,1 1 1 1 1,0 1 0 1 0,1 0 1 0 1
329,4,4,prac,60,2,68,76,3,8.74370123000062,1.824284790001002,12.601791129999583,0.625,0.6222222222222222,45,0,1.9,9 9 9 9 9,5 7 4 5 7,4 2 5 4 2
329,5,5,prac,65,2,55,47,2,5.25436443000035,2.02119668999876,7.60147262999908,0.625,0.6222222222222222,45,0,1.7,9 9 9 9 9,5 5 6 7 5,4 4 3 2 4
329,6,6,prac,50,1,50,50,2,3.42978262999986,2.4129492900001424,3.650111229999311,0.5,0.4,5,1,1.8,1 1 1 1 1,0 0 1 1 0,1 1 0 0 1
329,7,7,prac,62,2,70,77,1,5.35992112999884,2.3829510900004607,3.5584974299999885,0.625,0.6222222222222222,45,0,1.6,9 9 9 9 9,5 8 5 4 6,4 1 4 5 3
329,8,8,prac,45,2,35,30,3,7.86429932999999,1.9549491900006615,8.620934130000023,0.375,0.37777777777777777,45,0,1.6,9 9 9 9 9,2 2 5 3 5,7 7 4 6 4
329,9,9,prac,80,2,73,63,2,4.72093632999986,3.7049774900006014,5.956071330000668,0.125,0.2,5,0,1.8,1 1 1 1 1,0 0 0 1 0,1 1 1 0 1
329,10,10,prac,100,3,99,99,3,3.71307542999966,1.9413529900002686,4.082497230000627,1,1,45,1,1.5,9 9 9 9 9,9 9 9 9 9,0 0 0 0 0
329,11,11,prac,60,2,67,75,2,4.94331483000042,2.2315902899999855,11.290436429999318,0.625,0.6,5,0,1.7,1 1 1 1 1,1 0 1 1 0,0 1 0 0 1
329,12,12,prac,80,2,80,80,1,7.28533853000044,2.617107889998806,4.356463529999019,0.875,0.8,5,1,1.9,1 1 1 1 1,0 1 1 1 1,1 0 0 0 0
329,13,13,prac,90,2,83,75,2,4.10974902999988,1.4159741899993605,8.18897442999969,0.125,0.13333333333333333,45,0,1.7,9 9 9 9 9,2 2 1 1 0,7 7 8 8 9
329,14,14,prac,60,2,72,78,3,5.22074862999852,2.2053822899997613,7.024282430000312,0.625,0.6,5,0,1.6,1 1 1 1 1,1 0 0 1 1,0 1 1 0 0
329,15,15,prac,88,2,88,70,1,5.91829923000023,1.725562689999606,6.657994930000314,0.875,0.8666666666666667,45,0,1.6,9 9 9 9 9,8 6 9 8 8,1 3 0 1 1
331,1,1,prac,62,1,59,44,2,4.94320121999999,2.123964259999866,6.79986804000009,0.625,0.6222222222222222,45,0,1.6,9 9 9 9 9,5 5 7 6 5,4 4 2 3 4
331,2,2,prac,54,2,54,69,3,5.60982421999961,2.0637219600000662,3.45155131999991,0.625,0.6,5,0,1.6,1 1 1 1 1,1 0 0 1 1,0 1 1 0 0
331,3,3,prac,67,2,63,50,3,5.79331112,5.331906760000038,3.83517963999952,0.625,0.6222222222222222,45,0,1.9,9 9 9 9 9,6 4 7 6 5,3 5 2 3 4
331,4,4,prac,55,2,55,55,1,7.79356252000025,1.9501531599998998,4.82641941999987,0.5,0.4,5,1,2,1 1 1 1 1,1 0 0 1 0,0 1 1 0 1
331,5,5,prac,90,1,90,73,2,5.32311791999996,4.441531059999988,4.22509913999988,0.125,0.13333333333333333,45,0,1.8,9 9 9 9 9,3 1 1 0 1,6 8 8 9 8
331,6,6,prac,75,1,75,75,2,6.3581289199999,2.497023659999968,3.24209784000004,0.875,0.8,5,1,1.8,1 1 1 1 1,1 0 1 1 1,0 1 0 0 0
331,7,7,prac,85,1,85,99,2,11.5857746200002,1.7883959599996615,5.08096253999997,0.875,0.8666666666666667,45,0,1.9,9 9 9 9 9,7 7 9 8 8,2 2 0 1 1
331,8,8,prac,66,1,66,51,2,11.57742282,2.558516759999975,4.41089062000015,0.625,0.6,5,0,1.6,1 1 1 1 1,1 0 0 1 1,0 1 1 0 0
331,9,9,prac,66,2,63,49,1,7.86859642000013,4.348313660000031,5.05867103999958,0.625,0.6,5,0,1.5,1 1 1 1 1,1 0 0 1 1,0 1 1 0 0
331,10,10,prac,33,1,35,49,1,11.6724483200003,2.014663859999928,2.49766784000008,0.375,0.37777777777777777,45,0,1.9,9 9 9 9 9,5 2 2 4 4,4 7 7 5 5
331,11,11,prac,99,2,99,99,3,9.86048841999991,2.583189860000175,3.29801272000009,1,1,45,1,1.8,9 9 9 9 9,9 9 9 9 9,0 0 0 0 0
331,12,12,prac,52,1,52,67,1,5.00491752000016,1.781544959999792,4.73461672000008,0.625,0.6222222222222222,45,0,2,9 9 9 9 9,6 5 8 4 5,3 4 1 5 4
331,13,13,prac,95,1,5,37,1,2.89289512000005,2.807575560000032,14.2646751199998,0.125,0.2,5,0,1.6,1 1 1 1 1,0 0 0 0 1,1 1 1 1 0
331,14,14,prac,95,2,90,80,2,9.96388591999971,2.508232659999976,6.24540191999995,0.875,0.8,5,0,1.7,1 1 1 1 1,1 0 1 1 1,0 1 0 0 0
331,15,15,prac,33,1,33,50,3,6.18839952000008,2.0496831599998586,3.37142012000027,0.375,0.4,5,0,1.7,1 1 1 1 1,0 1 0 0 1,1 0 1 1 0
332,1,1,prac,62,2,62,60,3,6.21003646000099,1.946256879997236,5.83534436000082,1,1,45,1,1.8,9 9 9 9 9,9 9 9 9 9,0 0 0 0 0
332,2,2,prac,50,1,50,35,1,10.2997972600006,1.9132235800007038,2.79034561999833,0.375,0.4,5,0,1.6,1 1 1 1 1,1 1 0 0 0,0 0 1 1 1
332,3,3,prac,61,1,64,63,3,5.10296616000051,1.8570462799980305,6.8616330599998,0.875,0.8,5,1,1.6,1 1 1 1 1,1 1 0 1 1,0 0 1 0 0
332,4,4,prac,48,1,57,64,2,4.03810205999798,1.9748943799986591,4.16306711999823,0.875,0.8,5,0,1.8,1 1 1 1 1,1 0 1 1 1,0 1 0 0 0
332,5,5,prac,32,2,32,17,2,3.98808336000002,1.6156836799982557,3.5062294599993,0.125,0.13333333333333333,45,0,1.5,9 9 9 9 9,1 1 1 1 2,8 8 8 8 7
332,6,6,prac,82,2,82,97,2,4.14311725999869,1.9743386800000735,4.73434285999792,0.875,0.8666666666666667,45,0,1.9,9 9 9 9 9,9 8 6 7 9,0 1 3 2 0
332,7,7,prac,36,1,41,53,2,4.63615365999976,2.4996299799986446,2.35422106000078,0.375,0.37777777777777777,45,0,1.7,9 9 9 9 9,4 4 4 4 1,5 5 5 5 8
332,8,8,prac,70,1,65,55,2,4.3298602599989,1.9662837800005946,3.45615455999723,0.625,0.6222222222222222,45,0,1.8,9 9 9 9 9,7 4 4 7 6,2 5 5 2 3
332,9,9,prac,60,1,60,75,1,4.45485326000016,1.8744804799971462,3.68475226000191,0.625,0.6222222222222222,45,0,2,9 9 9 9 9,7 5 6 4 6,2 4 3 5 3
332,10,10,prac,50,1,50,65,1,5.37154825999824,1.6806178799997724,3.79671395999867,0.625,0.6,5,0,1.6,1 1 1 1 1,1 1 0 1 0,0 0 1 0 1
332,11,11,prac,33,1,33,15,1,7.10516796000047,1.2487777799997275,2.83801465999932,0.125,0.2,5,0,1.7,1 1 1 1 1,0 0 1 0 0,1 1 0 1 1
332,12,12,prac,50,1,56,66,2,4.30785905999983,1.9735185799981991,3.67599035999956,0.625,0.6,5,0,1.6,1 1 1 1 1,1 0 1 1 0,0 1 0 0 1
332,13,13,prac,50,1,67,66,3,3.6622624599986,2.1217524800013052,3.95863305999774,0.625,0.6,5,0,1.7,1 1 1 1 1,1 0 1 0 1,0 1 0 1 0
332,14,14,prac,50,1,50,51,1,3.24291906000144,2.3822064800024236,2.73888411999906,0.5,0.4,5,1,1.5,1 1 1 1 1,1 0 0 0 1,0 1 1 1 0
332,15,15,prac,67,1,56,50,3,3.31255996000255,1.580188879997877,3.86115275999873,0.625,0.6222222222222222,45,0,1.9,9 9 9 9 9,6 7 5 5 5,3 2 4 4 4
333,1,1,prac,20,2,14,3,2,3.78460653000002,2.050077590000001,13.44686533,0.125,0.2,5,0,1.8,1 1 1 1 1,0 1 0 0 0,1 0 1 1 1
333,2,2,prac,92,2,91,74,2,13.05259073,3.5055298900001617,13.4830037300001,0.875,0.8,5,0,1.5,1 1 1 1 1,1 1 1 1 0,0 0 0 0 1
333,3,3,prac,89,2,90,90,3,9.63017313,2.327389089999997,16.68489903,0.875,0.8,5,1,1.9,1 1 1 1 1,1 1 0 1 1,0 0 1 0 0
333,4,4,prac,37,2,48,55,3,6.33291363000012,1.7882499899999402,5.90797172999987,0.375,0.37777777777777777,45,0,1.6,9 9 9 9 9,4 1 4 4 4,5 8 5 5 5
333,5,5,prac,73,3,69,55,2,16.1472056299999,2.0550170899998648,5.72846492999997,0.625,0.6,5,0,1.9,1 1 1 1 1,0 1 0 1 1,1 0 1 0 0
