sID,trial_number,trial_number_run,run,estimate1,estimate2,estimate_peer,confidence_peer,estimate1_rt,estimate2_rt,true_ratio,seen_ratio,nTotal,filler_trial,ITI,nMushrooms,nBlue,nRed,s,strategy,confidence_rating,trial_filter
201,1,1,1,8,10,25,2,10.974436329999662,8.17629898999985,0.125,0.13333333333333333,45,0,4.7,9 9 9 9 9,0 1 0 1 4,9 8 9 8 5,0.11764705882352941,compromise,2,1
201,3,3,1,47,47,65,1,3.044386130000021,14.1582665999995,0.625,0.6222222222222222,45,0,5.7,9 9 9 9 9,8 7 4 5 4,1 2 5 4 5,0,stay,2,1
201,4,4,1,21,31,38,3,15.967364029999771,11.1131365400006,0.25,0.2,5,0,5.4,1 1 1 1 1,0 0 0 1 0,1 1 1 0 1,0.5882352941176471,compromise,2.375,1
201,6,6,1,61,61,76,1,7.082605029999286,7.80992564000007,0.625,0.6,5,0,5.4,1 1 1 1 1,1 0 1 0 1,0 1 0 1 0,0,stay,2.375,1
201,7,7,1,18,7,1,3,11.291014630000973,4.63873223999963,0.125,0.2,5,0,4,1 1 1 1 1,0 0 0 0 1,1 1 1 1 0,0.6470588235294118,compromise,2.375,1
201,8,8,1,42,42,24,1,5.735085429999344,9.28839923999931,0.375,0.4,5,0,4.3,1 1 1 1 1,1 0 0 0 1,0 1 1 1 0,-0,stay,2.375,1
201,9,9,1,82,73,66,3,4.004941030000737,7.91030543999932,0.75,0.7555555555555555,45,0,4.3,9 9 9 9 9,8 7 4 7 8,1 2 5 2 1,0.5625,compromise,2,1
201,10,10,1,25,33,43,2,6.621652929999982,10.0123259400007,0.375,0.37777777777777777,45,0,5.1,9 9 9 9 9,4 3 4 4 2,5 6 5 5 7,0.4444444444444444,compromise,2,1
201,11,11,1,10,15,25,3,8.857652730000154,3.60703063999881,0.125,0.13333333333333333,45,0,6,9 9 9 9 9,0 2 1 1 2,9 7 8 8 7,0.3333333333333333,compromise,2,1
201,14,14,1,4,13,20,1,4.607590930000697,4.77124764000018,0.125,0.13333333333333333,45,0,5.1,9 9 9 9 9,0 3 0 1 2,9 6 9 8 7,0.5625,compromise,2,1
201,15,15,1,23,34,40,3,6.047828329999902,6.01911763999942,0.25,0.2,5,0,5.4,1 1 1 1 1,0 0 0 1 0,1 1 1 0 1,0.6470588235294118,compromise,2.375,1
201,17,17,1,36,45,53,3,7.642655430000559,6.46417788000053,0.375,0.4,5,0,5.8,1 1 1 1 1,1 0 0 1 0,0 1 1 0 1,0.5294117647058824,compromise,2.375,1
201,18,18,1,51,52,67,1,4.721665829999438,7.55592144000002,0.625,0.6222222222222222,45,0,6,9 9 9 9 9,5 8 5 3 7,4 1 4 6 2,0.0625,compromise,2,1
201,21,21,1,91,87,74,2,6.209286630000861,3.91245476999939,0.75,0.8,5,0,5.3,1 1 1 1 1,1 0 1 1 1,0 1 0 0 0,0.23529411764705882,compromise,2.375,1
201,22,22,1,44,34,27,1,3.324277030000303,4.67771744000038,0.375,0.37777777777777777,45,0,4.7,9 9 9 9 9,3 3 3 4 4,6 6 6 5 5,0.5882352941176471,compromise,2,1
201,23,23,1,49,63,65,3,9.599395530000038,2.99528123999971,0.75,0.8,5,0,4.6,1 1 1 1 1,1 0 1 1 1,0 1 0 0 0,0.875,compromise,2.375,1
201,24,24,1,37,29,20,2,9.782659129999956,5.57534403999944,0.25,0.24444444444444444,45,0,5.6,9 9 9 9 9,1 1 4 3 2,8 8 5 6 7,0.47058823529411764,compromise,2,1
201,26,1,2,18,4,2,3,6.282396509999671,4.018012820000877,0.125,0.2,5,0,5.5,1 1 1 1 1,0 0 1 0 0,1 1 0 1 1,0.875,compromise,2.375,1
201,27,2,2,75,81,92,3,4.978080309999314,3.9204439800005275,0.75,0.7555555555555555,45,0,5.6,9 9 9 9 9,6 8 4 8 8,3 1 5 1 1,0.35294117647058826,compromise,2,1
201,28,3,2,16,16,32,1,7.788418209999691,2.630197479999879,0.25,0.2,5,0,4.8,1 1 1 1 1,0 0 1 0 0,1 1 0 1 1,0,stay,2.375,1
201,29,4,2,57,67,75,3,10.04068591000032,3.2024519799997506,0.625,0.6,5,0,4.3,1 1 1 1 1,1 1 0 1 0,0 0 1 0 1,0.5555555555555556,compromise,2.375,1
201,30,5,2,44,58,62,2,9.390838610000174,4.263998480000737,0.625,0.6222222222222222,45,0,4.8,9 9 9 9 9,6 6 6 6 4,3 3 3 3 5,0.7777777777777778,compromise,2,1
201,32,7,2,50,61,66,2,3.7402384099996198,2.449430979999306,0.625,0.6,5,0,4.7,1 1 1 1 1,0 1 0 1 1,1 0 1 0 0,0.6875,compromise,2.375,1
201,33,8,2,43,56,60,3,2.915634709999722,2.149878379999791,0.625,0.6222222222222222,45,0,5.1,9 9 9 9 9,6 5 4 8 5,3 4 5 1 4,0.7647058823529411,compromise,2,1
201,34,9,2,40,34,25,2,4.957392409998647,3.0742273800005933,0.375,0.4,5,0,4.6,1 1 1 1 1,1 0 0 1 0,0 1 1 0 1,0.4,compromise,2.375,1
201,37,12,2,97,92,80,1,17.249262410000483,3.573450980000416,0.75,0.7555555555555555,45,0,4.6,9 9 9 9 9,6 7 7 9 5,3 2 2 0 4,0.29411764705882354,compromise,2,1
201,43,18,2,49,41,33,2,9.510949710000205,2.914025980000588,0.125,0.2,5,0,5.4,1 1 1 1 1,0 1 0 0 0,1 0 1 1 1,0.5,compromise,2.375,1
201,46,21,2,15,3,1,2,3.6163734100009606,2.424092279999968,0.125,0.2,5,0,5.4,1 1 1 1 1,1 0 0 0 0,0 1 1 1 1,0.8571428571428571,compromise,2.375,1
201,47,22,2,5,15,20,3,4.982195810000121,2.317621379999764,0.25,0.24444444444444444,45,0,6,9 9 9 9 9,3 3 2 1 2,6 6 7 8 7,0.6666666666666666,compromise,2,1
201,48,23,2,8,20,25,1,4.882398109999485,12.879028779999317,0.125,0.2,5,0,4.3,1 1 1 1 1,1 0 0 0 0,0 1 1 1 1,0.7058823529411765,compromise,2.375,1
201,51,1,3,20,24,35,2,4.809150710000722,3.75328891000026,0.25,0.2,5,0,4.1,1 1 1 1 1,0 0 0 1 0,1 1 1 0 1,0.26666666666666666,compromise,2.375,1
201,52,2,3,34,48,50,3,3.817205410000497,1.88269127999956,0.375,0.4,5,0,4.4,1 1 1 1 1,0 1 1 0 0,1 0 0 1 1,0.875,compromise,2.375,1
201,53,3,3,42,42,25,1,5.053565710000839,3.29777348000061,0.25,0.24444444444444444,45,0,4.2,9 9 9 9 9,2 4 2 0 3,7 5 7 9 6,-0,stay,2,1
201,54,4,3,17,11,2,1,4.344939909999994,5.81499687999985,0.125,0.2,5,0,4,1 1 1 1 1,0 0 1 0 0,1 1 0 1 1,0.4,compromise,2.375,1
201,55,5,3,28,26,10,2,6.216040610000164,5.25337908999973,0.25,0.24444444444444444,45,0,4.2,9 9 9 9 9,4 0 2 2 3,5 9 7 7 6,0.1111111111111111,compromise,2,1
201,58,8,3,62,62,44,2,2.990898909999487,3.93833928000004,0.625,0.6,5,0,5.2,1 1 1 1 1,1 1 0 0 1,0 0 1 1 0,-0,stay,2.375,1
201,59,9,3,16,19,32,3,6.6131991100010055,3.55817057999957,0.25,0.24444444444444444,45,0,5.2,9 9 9 9 9,3 1 2 3 2,6 8 7 6 7,0.1875,compromise,2,1
201,60,10,3,19,21,37,2,2.124083210000208,1.87748207999994,0.25,0.2,5,0,5.7,1 1 1 1 1,0 0 0 1 0,1 1 1 0 1,0.1111111111111111,compromise,2.375,1
201,62,12,3,33,42,48,3,3.3909274099996765,6.73476878000019,0.375,0.37777777777777777,45,0,4.8,9 9 9 9 9,2 4 2 4 5,7 5 7 5 4,0.6,compromise,2,1
201,63,13,3,81,77,63,2,10.203426810000565,4.56048708000071,0.75,0.8,5,0,5.1,1 1 1 1 1,0 1 1 1 1,1 0 0 0 0,0.2222222222222222,compromise,2.375,1
201,64,14,3,54,63,70,3,4.478327710000485,3.08325908000006,0.625,0.6222222222222222,45,0,5,9 9 9 9 9,5 6 5 5 7,4 3 4 4 2,0.5625,compromise,2,1
201,65,15,3,17,18,32,1,8.418173209999622,3.82906378000007,0.25,0.2,5,0,4.4,1 1 1 1 1,0 1 0 0 0,1 0 1 1 1,0.06666666666666667,compromise,2.375,1
201,67,17,3,43,43,28,1,5.2716154099998676,2.46743287999925,0.375,0.37777777777777777,45,0,5.5,9 9 9 9 9,1 3 2 5 6,8 6 7 4 3,-0,stay,2,1
201,68,18,3,7,18,25,2,2.274143410000761,2.75102467999932,0.125,0.13333333333333333,45,0,5.8,9 9 9 9 9,0 3 1 1 1,9 6 8 8 8,0.6111111111111112,compromise,2,1
201,70,20,3,81,80,66,3,2.3281120100000408,8.00173376999919,0.75,0.8,5,0,5.3,1 1 1 1 1,1 1 1 1 0,0 0 0 0 1,0.06666666666666667,compromise,2.375,1
201,71,21,3,78,78,63,2,11.090862510000079,5.05653927999992,0.75,0.7555555555555555,45,0,4.6,9 9 9 9 9,9 7 6 5 7,0 2 3 4 2,-0,stay,2,1
201,73,23,3,74,81,90,2,4.399234509999587,3.28035017999991,0.75,0.7555555555555555,45,0,4.2,9 9 9 9 9,6 8 7 5 8,3 1 2 4 1,0.4375,compromise,2,1
201,74,24,3,41,31,25,2,6.844956110000567,2.39724318000117,0.375,0.37777777777777777,45,0,5.5,9 9 9 9 9,2 3 4 4 4,7 6 5 5 5,0.625,compromise,2,1
201,75,25,3,82,80,67,1,3.1572872100005043,4.39492398000039,0.75,0.8,5,0,4.7,1 1 1 1 1,1 1 1 1 0,0 0 0 0 1,0.13333333333333333,compromise,2.375,1
203,3,3,1,37,31,21,3,11.784576659996674,3.59943138000017,0.375,0.37777777777777777,45,0,5.5,9 9 9 9 9,3 4 4 4 2,6 5 5 5 7,0.375,compromise,2.142857142857143,1
203,5,5,1,87,83,70,2,8.349024459999782,6.27698797999983,0.75,0.7555555555555555,45,0,4.1,9 9 9 9 9,7 8 6 7 6,2 1 3 2 3,0.23529411764705882,compromise,2.142857142857143,1
203,9,9,1,9,18,24,3,3.5088216600015585,1.79103978000057,0.25,0.24444444444444444,45,0,4.8,9 9 9 9 9,2 3 2 1 3,7 6 7 8 6,0.6,compromise,2.142857142857143,1
203,10,10,1,12,20,30,1,6.959034160001465,7.40774967999823,0.25,0.2,5,0,5.3,1 1 1 1 1,0 0 1 0 0,1 1 0 1 1,0.4444444444444444,compromise,1.875,1
203,11,11,1,8,9,24,1,5.385955860001559,6.795813980003,0.125,0.2,5,0,4.6,1 1 1 1 1,0 0 1 0 0,1 1 0 1 1,0.0625,compromise,1.875,1
203,12,12,1,93,84,76,2,5.290704459999688,9.48472978000063,0.75,0.8,5,0,4.4,1 1 1 1 1,1 0 1 1 1,0 1 0 0 0,0.5294117647058824,compromise,1.875,1
203,13,13,1,85,74,70,3,2.8658368600008544,3.42400827999882,0.75,0.7555555555555555,45,0,4.5,9 9 9 9 9,6 7 7 6 8,3 2 2 3 1,0.7333333333333333,compromise,2.142857142857143,1
203,14,14,1,32,35,50,1,6.509303859998909,4.96500587999617,0.375,0.37777777777777777,45,0,4.3,9 9 9 9 9,1 4 4 3 5,8 5 5 6 4,0.16666666666666666,compromise,2.142857142857143,1
203,15,15,1,14,4,1,3,4.684718459997384,8.59440388000075,0.125,0.2,5,0,4.6,1 1 1 1 1,0 0 0 0 1,1 1 1 1 0,0.7692307692307693,compromise,1.875,1
203,16,16,1,2,12,19,3,7.891310459999659,4.61387467999884,0.25,0.2,5,0,6,1 1 1 1 1,1 0 0 0 0,0 1 1 1 1,0.5882352941176471,compromise,1.875,1
203,18,18,1,54,55,70,1,6.481835059999867,2.42928708000181,0.625,0.6222222222222222,45,0,4.5,9 9 9 9 9,5 7 6 5 5,4 2 3 4 4,0.0625,compromise,2.142857142857143,1
203,19,19,1,3,14,20,3,3.365485260001151,3.30539859999044,0.125,0.2,5,0,5.1,1 1 1 1 1,0 0 1 0 0,1 1 0 1 1,0.6470588235294118,compromise,1.875,1
203,20,20,1,88,80,71,1,6.8514938599983,2.73022318000221,0.75,0.8,5,0,5.6,1 1 1 1 1,1 1 1 1 0,0 0 0 0 1,0.47058823529411764,compromise,1.875,1
203,21,21,1,12,12,30,1,5.25791155999832,1.84716038000261,0.25,0.24444444444444444,45,0,4.1,9 9 9 9 9,0 4 2 3 2,9 5 7 6 7,0,stay,2.142857142857143,1
203,22,22,1,35,36,50,2,5.285214859999542,1.71102298000187,0.375,0.4,5,0,4.2,1 1 1 1 1,0 0 0 1 1,1 1 1 0 0,0.06666666666666667,compromise,1.875,1
203,23,23,1,25,25,43,1,5.592410059998656,1.97874688000229,0.25,0.24444444444444444,45,0,5,9 9 9 9 9,0 2 3 4 2,9 7 6 5 7,0,stay,2.142857142857143,1
203,24,24,1,37,20,20,3,5.2821877599999425,2.47398797999995,0.375,0.4,5,0,4.5,1 1 1 1 1,0 0 1 0 1,1 1 0 1 0,1,copy,1.875,1
203,25,25,1,85,85,70,1,3.525655760000518,7.60471538000274,0.75,0.7555555555555555,45,0,5.3,9 9 9 9 9,6 6 8 8 6,3 3 1 1 3,-0,stay,2.142857142857143,1
203,26,1,2,19,16,4,1,15.138799690004817,8.9046286000048,0.125,0.2,5,0,4.5,1 1 1 1 1,0 0 0 0 1,1 1 1 1 0,0.2,compromise,1.875,1
203,28,3,2,7,10,22,2,4.396616489997541,1.54572622000342,0.125,0.13333333333333333,45,0,4.8,9 9 9 9 9,1 1 1 2 1,8 8 8 7 8,0.2,compromise,2.142857142857143,1
203,29,4,2,29,40,44,3,8.31322239000292,4.94926241999929,0.375,0.4,5,0,5.3,1 1 1 1 1,0 0 0 1 1,1 1 1 0 0,0.7333333333333333,compromise,1.875,1
203,30,5,2,91,82,75,3,3.5180281900029513,4.86668332000409,0.75,0.8,5,0,5.9,1 1 1 1 1,1 1 1 0 1,0 0 0 1 0,0.5625,compromise,1.875,1
203,31,6,2,12,15,30,3,2.7755021900011343,2.87887012000283,0.125,0.13333333333333333,45,0,5.3,9 9 9 9 9,2 0 1 0 3,7 9 8 9 6,0.16666666666666666,compromise,2.142857142857143,1
203,32,7,2,24,35,39,2,12.415351690000534,3.10175082000205,0.25,0.24444444444444444,45,0,4,9 9 9 9 9,2 3 2 1 3,7 6 7 8 6,0.7333333333333333,compromise,2.142857142857143,1
203,33,8,2,55,65,73,3,6.0319384900030855,2.19857902000513,0.625,0.6222222222222222,45,0,4.5,9 9 9 9 9,6 4 5 6 7,3 5 4 3 2,0.5555555555555556,compromise,2.142857142857143,1
203,34,9,2,35,36,53,1,5.001589690004039,2.33188511999833,0.375,0.37777777777777777,45,0,4.4,9 9 9 9 9,4 3 6 3 1,5 6 3 6 8,0.05555555555555555,compromise,2.142857142857143,1
203,35,10,2,20,22,37,1,3.9577261899976293,4.01459022000563,0.375,0.4,5,0,5,1 1 1 1 1,0 0 0 1 1,1 1 1 0 0,0.11764705882352941,compromise,1.875,1
203,37,12,2,40,35,24,2,7.268097589996614,3.24842392000573,0.375,0.4,5,0,5.2,1 1 1 1 1,0 1 0 1 0,1 0 1 0 1,0.3125,compromise,1.875,1
203,39,14,2,79,70,62,3,8.118060990000231,3.94462033000309,0.75,0.7555555555555555,45,0,5.7,9 9 9 9 9,8 6 4 9 7,1 3 5 0 2,0.5294117647058824,compromise,2.142857142857143,1
203,40,15,2,40,35,25,3,5.964503490002244,2.95678172000044,0.375,0.37777777777777777,45,0,4.9,9 9 9 9 9,3 4 4 2 4,6 5 5 7 5,0.3333333333333333,compromise,2.142857142857143,1
203,41,16,2,10,10,26,2,3.2076008900003217,3.05783502000122,0.25,0.24444444444444444,45,0,4.2,9 9 9 9 9,4 3 1 2 1,5 6 8 7 8,0,stay,2.142857142857143,1
203,42,17,2,5,7,20,1,1.8578151900001103,2.34317652000391,0.125,0.13333333333333333,45,0,4.8,9 9 9 9 9,0 0 3 2 1,9 9 6 7 8,0.13333333333333333,compromise,2.142857142857143,1
203,44,19,2,45,46,62,1,6.751885390000098,5.41912142000729,0.625,0.6222222222222222,45,0,5.3,9 9 9 9 9,6 5 6 7 4,3 4 3 2 5,0.058823529411764705,compromise,2.142857142857143,1
203,49,24,2,17,26,34,3,3.6346781900028873,3.08872739001526,0.25,0.24444444444444444,45,0,5.4,9 9 9 9 9,1 3 2 3 2,8 6 7 6 7,0.5294117647058824,compromise,2.142857142857143,1
203,50,25,2,15,4,1,2,4.457951889999094,1.8232805200023,0.125,0.2,5,0,4.8,1 1 1 1 1,1 0 0 0 0,0 1 1 1 1,0.7857142857142857,compromise,1.875,1
203,51,1,3,57,62,72,1,4.501395909999701,3.25416309999127,0.625,0.6,5,0,5,1 1 1 1 1,1 0 1 0 1,0 1 0 1 0,0.3333333333333333,compromise,1.875,1
203,52,2,3,15,8,1,3,7.75792380999701,1.7999762799991,0.125,0.13333333333333333,45,0,4.9,9 9 9 9 9,1 1 3 0 1,8 8 6 9 8,0.5,compromise,2.142857142857143,1
203,54,4,3,85,78,70,3,5.101451009999437,4.38128537999728,0.75,0.8,5,0,4.6,1 1 1 1 1,1 0 1 1 1,0 1 0 0 0,0.4666666666666667,compromise,1.875,1
203,55,5,3,65,70,81,1,4.047625510000216,1.96013727999525,0.75,0.8,5,0,4.9,1 1 1 1 1,1 0 1 1 1,0 1 0 0 0,0.3125,compromise,1.875,1
203,57,7,3,40,27,25,3,3.626923509997141,2.20116447999681,0.25,0.2,5,0,5.1,1 1 1 1 1,1 0 0 0 0,0 1 1 1 1,0.8666666666666667,compromise,1.875,1
203,58,8,3,75,67,60,3,4.9347651099997165,4.45160427999872,0.625,0.6,5,0,5.8,1 1 1 1 1,1 1 1 0 0,0 0 0 1 1,0.5333333333333333,compromise,1.875,1
203,60,10,3,65,63,50,2,4.825752209999337,3.05084408000039,0.625,0.6222222222222222,45,0,5.5,9 9 9 9 9,6 7 5 7 3,3 2 4 2 6,0.13333333333333333,compromise,2.142857142857143,1
203,61,11,3,56,46,40,1,6.341061710001668,2.7183261800019,0.375,0.4,5,0,4.8,1 1 1 1 1,0 1 0 0 1,1 0 1 1 0,0.625,compromise,1.875,1
203,63,13,3,65,62,50,2,2.432409809996898,2.64431698000044,0.625,0.6,5,0,5.9,1 1 1 1 1,1 0 1 0 1,0 1 0 1 0,0.2,compromise,1.875,1
203,64,14,3,35,40,51,2,3.6180600100015,4.70062558000427,0.375,0.37777777777777777,45,0,5.7,9 9 9 9 9,4 2 3 4 4,5 7 6 5 5,0.3125,compromise,2.142857142857143,1
203,67,17,3,89,80,72,3,5.166934009997931,2.89305707999665,0.625,0.6222222222222222,45,0,4.3,9 9 9 9 9,5 4 5 6 8,4 5 4 3 1,0.5294117647058824,compromise,2.142857142857143,1
203,69,19,3,64,61,48,1,5.908023210002284,2.86849578000329,0.625,0.6,5,0,5.5,1 1 1 1 1,1 1 0 1 0,0 0 1 0 1,0.1875,compromise,1.875,1
203,70,20,3,5,7,20,1,1.364390109996748,4.27196926999386,0.25,0.2,5,0,4.8,1 1 1 1 1,0 0 0 0 1,1 1 1 1 0,0.13333333333333333,compromise,1.875,1
203,72,22,3,10,20,25,2,2.508689009995578,3.2174202799979,0.25,0.2,5,0,4.3,1 1 1 1 1,0 0 0 0 1,1 1 1 1 0,0.6666666666666666,compromise,1.875,1
203,73,23,3,29,22,13,2,3.558799309997994,2.80454516999816,0.25,0.2,5,0,5.4,1 1 1 1 1,0 0 0 0 1,1 1 1 1 0,0.4375,compromise,1.875,1
203,74,24,3,68,64,50,2,2.0591879099956714,2.56053337999401,0.625,0.6222222222222222,45,0,5.4,9 9 9 9 9,6 6 3 6 7,3 3 6 3 2,0.2222222222222222,compromise,2.142857142857143,1
207,1,1,1,37,40,53,1,7.8338088200007405,7.05772825999975,0.375,0.37777777777777777,45,0,4.1,9 9 9 9 9,5 2 3 3 4,4 7 6 6 5,0.1875,compromise,2.4285714285714284,1
207,2,2,1,80,76,65,1,9.016024919999836,4.6219133600016,0.75,0.8,5,0,4.9,1 1 1 1 1,1 0 1 1 1,0 1 0 0 0,0.26666666666666666,compromise,2.25,1
207,4,4,1,59,64,77,1,7.824433120000322,5.17591035999976,0.625,0.6222222222222222,45,0,4.8,9 9 9 9 9,7 4 9 4 4,2 5 0 5 5,0.2777777777777778,compromise,2.4285714285714284,1
207,6,6,1,42,31,27,3,4.403732819999277,6.09994205999919,0.375,0.37777777777777777,45,0,5.1,9 9 9 9 9,3 4 4 2 4,6 5 5 7 5,0.7333333333333333,compromise,2.4285714285714284,1
207,7,7,1,13,13,31,1,8.762313219999669,2.293080559999,0.25,0.24444444444444444,45,0,4.8,9 9 9 9 9,2 2 2 2 3,7 7 7 7 6,0,stay,2.4285714285714284,1
207,9,9,1,83,79,67,1,5.2247994199997265,3.7624744600007,0.75,0.7555555555555555,45,0,5.4,9 9 9 9 9,7 7 7 8 5,2 2 2 1 4,0.25,compromise,2.4285714285714284,1
207,10,10,1,20,23,35,1,5.059262519998811,5.37690166000084,0.25,0.2,5,0,4.7,1 1 1 1 1,0 1 0 0 0,1 0 1 1 1,0.2,compromise,2.25,1
207,13,13,1,77,70,60,3,3.6048100199996043,2.19213715999922,0.75,0.7555555555555555,45,0,4.6,9 9 9 9 9,8 8 6 6 6,1 1 3 3 3,0.4117647058823529,compromise,2.4285714285714284,1
207,14,14,1,40,31,25,3,7.26211942000009,3.48889995999889,0.375,0.4,5,0,5.3,1 1 1 1 1,1 0 0 1 0,0 1 1 0 1,0.6,compromise,2.25,1
207,16,16,1,20,4,3,3,3.9326180199986993,11.9621956600004,0.125,0.2,5,0,5.3,1 1 1 1 1,0 1 0 0 0,1 0 1 1 1,0.9411764705882353,compromise,2.25,1
207,17,17,1,16,24,34,1,6.612080919999244,3.49670326000069,0.25,0.24444444444444444,45,0,4.1,9 9 9 9 9,2 4 0 3 2,7 5 9 6 7,0.4444444444444444,compromise,2.4285714285714284,1
207,18,18,1,20,3,2,2,2.879908219999379,2.53595416000098,0.125,0.2,5,0,4.6,1 1 1 1 1,0 0 0 1 0,1 1 1 0 1,0.9444444444444444,compromise,2.25,1
207,20,20,1,20,10,3,1,4.63262351999947,2.90041665999979,0.125,0.2,5,0,4.2,1 1 1 1 1,0 1 0 0 0,1 0 1 1 1,0.5882352941176471,compromise,2.25,1
207,21,21,1,20,3,2,3,3.949964319999708,1.41998176000106,0.125,0.2,5,0,5.7,1 1 1 1 1,1 0 0 0 0,0 1 1 1 1,0.9444444444444444,compromise,2.25,1
207,22,22,1,23,32,41,3,3.9284014199984085,2.42288855999959,0.25,0.24444444444444444,45,0,5.6,9 9 9 9 9,3 3 2 3 0,6 6 7 6 9,0.5,compromise,2.4285714285714284,1
207,23,23,1,80,75,62,2,3.2199527200000375,2.32881986000029,0.75,0.8,5,0,5.1,1 1 1 1 1,1 1 0 1 1,0 0 1 0 0,0.2777777777777778,compromise,2.25,1
207,24,24,1,40,31,23,2,4.137383720000798,2.88136117999966,0.375,0.4,5,0,5.1,1 1 1 1 1,0 0 0 1 1,1 1 1 0 0,0.5294117647058824,compromise,2.25,1
207,25,25,1,20,28,35,3,4.863177519999226,2.83316935999937,0.25,0.2,5,0,5.9,1 1 1 1 1,0 0 0 0 1,1 1 1 1 0,0.5333333333333333,compromise,2.25,1
207,26,1,2,80,68,64,2,4.009706959999676,3.58833129999948,0.75,0.8,5,0,4.7,1 1 1 1 1,1 1 0 1 1,0 0 1 0 0,0.75,compromise,2.25,1
207,27,2,2,21,24,37,2,4.682572959999561,3.11824718000025,0.25,0.24444444444444444,45,0,4.2,9 9 9 9 9,2 2 2 3 2,7 7 7 6 7,0.1875,compromise,2.4285714285714284,1
207,28,3,2,16,8,1,2,3.5575854600010643,1.49428937999983,0.125,0.13333333333333333,45,0,5,9 9 9 9 9,1 0 1 4 0,8 9 8 5 9,0.5333333333333333,compromise,2.4285714285714284,1
207,29,4,2,55,66,73,3,3.957677459999104,3.985899780002,0.625,0.6222222222222222,45,0,4.8,9 9 9 9 9,8 4 5 5 6,1 5 4 4 3,0.6111111111111112,compromise,2.4285714285714284,1
207,30,5,2,38,34,20,1,7.462358559998393,2.1820814799994,0.375,0.37777777777777777,45,0,5.9,9 9 9 9 9,4 4 4 3 2,5 5 5 6 7,0.2222222222222222,compromise,2.4285714285714284,1
207,32,7,2,13,15,30,1,1.8955012599999463,1.93663288000062,0.125,0.13333333333333333,45,0,4.7,9 9 9 9 9,0 1 1 2 2,9 8 8 7 7,0.11764705882352941,compromise,2.4285714285714284,1
207,34,9,2,19,29,35,3,4.536835059998339,1.88386848000118,0.25,0.24444444444444444,45,0,5.6,9 9 9 9 9,1 0 4 5 1,8 9 5 4 8,0.625,compromise,2.4285714285714284,1
207,35,10,2,14,11,1,1,2.7656752599978063,3.21917178000149,0.125,0.13333333333333333,45,0,5.4,9 9 9 9 9,1 1 1 1 2,8 8 8 8 7,0.23076923076923078,compromise,2.4285714285714284,1
207,36,11,2,63,66,80,1,3.6206154599985894,3.39269627999965,0.625,0.6222222222222222,45,0,4,9 9 9 9 9,7 4 8 5 4,2 5 1 4 5,0.17647058823529413,compromise,2.4285714285714284,1
207,37,12,2,40,29,22,2,4.450875159998759,1.51663087999987,0.375,0.4,5,0,4.3,1 1 1 1 1,0 0 1 0 1,1 1 0 1 0,0.6111111111111112,compromise,2.25,1
207,38,13,2,20,16,5,1,6.057534059997124,2.31725758000175,0.125,0.2,5,0,5.3,1 1 1 1 1,0 1 0 0 0,1 0 1 1 1,0.26666666666666666,compromise,2.25,1
207,40,15,2,60,75,78,3,2.6122112599987304,4.51150538000184,0.625,0.6,5,0,4.4,1 1 1 1 1,0 0 1 1 1,1 1 0 0 0,0.8333333333333334,compromise,2.25,1
207,41,16,2,83,74,65,3,4.474213759998747,2.58536178000031,0.75,0.7555555555555555,45,0,4.7,9 9 9 9 9,7 8 6 6 7,2 1 3 3 2,0.5,compromise,2.4285714285714284,1
207,43,18,2,13,21,28,3,2.7866838599984476,2.42736048000006,0.125,0.13333333333333333,45,0,4.6,9 9 9 9 9,0 2 1 2 1,9 7 8 7 8,0.5333333333333333,compromise,2.4285714285714284,1
207,44,19,2,80,69,65,3,3.852373259998785,2.56143561999852,0.75,0.8,5,0,5.7,1 1 1 1 1,1 1 1 1 0,0 0 0 0 1,0.7333333333333333,compromise,2.25,1
207,45,20,2,30,36,45,3,5.950532860000749,3.06601018000038,0.375,0.37777777777777777,45,0,5.5,9 9 9 9 9,5 3 4 1 4,4 6 5 8 5,0.4,compromise,2.4285714285714284,1
207,46,21,2,17,23,35,2,2.47834395999962,1.75728187999994,0.25,0.24444444444444444,45,0,5.1,9 9 9 9 9,1 0 3 4 3,8 9 6 5 6,0.3333333333333333,compromise,2.4285714285714284,1
207,47,22,2,40,27,25,3,2.615854859999672,1.63528291999864,0.375,0.4,5,0,4.1,1 1 1 1 1,0 1 0 0 1,1 0 1 1 0,0.8666666666666667,compromise,2.25,1
207,48,23,2,36,46,53,2,2.9399854599996615,3.39894018000086,0.375,0.37777777777777777,45,0,4.8,9 9 9 9 9,4 0 5 3 5,5 9 4 6 4,0.5882352941176471,compromise,2.4285714285714284,1
207,49,24,2,20,13,5,2,5.199220860000423,2.80127918000107,0.125,0.2,5,0,4.4,1 1 1 1 1,0 0 1 0 0,1 1 0 1 1,0.4666666666666667,compromise,2.25,1
207,50,25,2,40,32,22,1,4.116054059999442,3.45105048000005,0.375,0.4,5,0,4.5,1 1 1 1 1,0 1 0 0 1,1 0 1 1 0,0.4444444444444444,compromise,2.25,1
207,52,2,3,13,23,30,3,3.332504419999168,1.88007495999955,0.125,0.13333333333333333,45,0,5.9,9 9 9 9 9,2 1 0 2 1,7 8 9 7 8,0.5882352941176471,compromise,2.4285714285714284,1
207,53,3,3,20,30,37,2,3.1077341200016235,3.7354377599986,0.25,0.2,5,0,5.2,1 1 1 1 1,0 0 0 0 1,1 1 1 1 0,0.5882352941176471,compromise,2.25,1
207,55,5,3,60,68,75,1,8.95762532000117,2.28572126000108,0.625,0.6,5,0,5.3,1 1 1 1 1,1 0 1 0 1,0 1 0 1 0,0.5333333333333333,compromise,2.25,1
207,56,6,3,20,31,35,3,5.271444519999932,2.60199835999993,0.25,0.2,5,0,5.9,1 1 1 1 1,0 0 1 0 0,1 1 0 1 1,0.7333333333333333,compromise,2.25,1
207,57,7,3,40,31,22,1,5.449424920001547,3.09127996000279,0.375,0.4,5,0,5.7,1 1 1 1 1,1 0 1 0 0,0 1 0 1 1,0.5,compromise,2.25,1
207,59,9,3,67,59,50,3,6.607562619998134,2.98395626000274,0.625,0.6222222222222222,45,0,4.5,9 9 9 9 9,6 5 7 5 5,3 4 2 4 4,0.47058823529411764,compromise,2.4285714285714284,1
207,62,12,3,20,32,37,2,2.8284210200017696,2.74934955999925,0.25,0.2,5,0,4.6,1 1 1 1 1,0 0 1 0 0,1 1 0 1 1,0.7058823529411765,compromise,2.25,1
207,63,13,3,20,31,35,1,3.507488220002415,6.73343594000107,0.25,0.2,5,0,4.5,1 1 1 1 1,0 0 0 0 1,1 1 1 1 0,0.7333333333333333,compromise,2.25,1
207,64,14,3,60,69,75,3,5.1742081200009125,2.27429475999998,0.625,0.6,5,0,5.9,1 1 1 1 1,1 0 1 0 1,0 1 0 1 0,0.6,compromise,2.25,1
207,65,15,3,67,58,50,2,4.832620920000409,4.40750165999998,0.625,0.6222222222222222,45,0,4.2,9 9 9 9 9,5 8 4 6 5,4 1 5 3 4,0.5294117647058824,compromise,2.4285714285714284,1
207,66,16,3,78,75,62,1,3.8993347199975688,3.85720945999856,0.75,0.7555555555555555,45,0,4.3,9 9 9 9 9,8 5 8 5 8,1 4 1 4 1,0.1875,compromise,2.4285714285714284,1
207,67,17,3,60,72,76,2,6.593094319998272,2.27739756000119,0.625,0.6,5,0,5.8,1 1 1 1 1,1 0 1 0 1,0 1 0 1 0,0.75,compromise,2.25,1
207,68,18,3,60,70,77,1,6.990859220000857,4.65096316000017,0.625,0.6,5,0,4.6,1 1 1 1 1,0 1 1 0 1,1 0 0 1 0,0.5882352941176471,compromise,2.25,1
207,70,20,3,47,58,62,2,3.5157601200007775,2.52393495999968,0.625,0.6222222222222222,45,0,5.2,9 9 9 9 9,7 4 5 5 7,2 5 4 4 2,0.7333333333333333,compromise,2.4285714285714284,1
207,71,21,3,68,78,83,2,6.0880866200004675,4.82892555999933,0.75,0.7555555555555555,45,0,5.6,9 9 9 9 9,7 7 7 5 8,2 2 2 4 1,0.6666666666666666,compromise,2.4285714285714284,1
207,73,23,3,60,72,77,2,7.357672119998824,3.8777651599994,0.625,0.6,5,0,5.5,1 1 1 1 1,1 0 1 0 1,0 1 0 1 0,0.7058823529411765,compromise,2.25,1
207,74,24,3,41,32,25,2,7.857926120001139,3.05349495999872,0.375,0.37777777777777777,45,0,4.1,9 9 9 9 9,4 2 3 4 4,5 7 6 5 5,0.5625,compromise,2.4285714285714284,1
207,75,25,3,80,69,65,3,3.2407851200005098,4.36786826000025,0.75,0.8,5,0,5.2,1 1 1 1 1,1 1 0 1 1,0 0 1 0 0,0.7333333333333333,compromise,2.25,1
210,1,1,1,34,34,50,3,8.404917589999968,9.66006949000075,0.375,0.37777777777777777,45,0,5.8,9 9 9 9 9,5 2 5 3 2,4 7 4 6 7,0,stay,2,1
210,2,2,1,80,80,65,3,7.538269990000117,6.79212732000087,0.75,0.8,5,0,4.9,1 1 1 1 1,1 1 0 1 1,0 0 1 0 0,-0,stay,2.75,1
210,4,4,1,66,66,50,1,7.857621090000066,5.75142985000093,0.625,0.6222222222222222,45,0,4.7,9 9 9 9 9,5 7 5 6 5,4 2 4 3 4,-0,stay,2,1
210,5,5,1,76,76,60,3,9.590867989999424,5.54596882000078,0.75,0.7555555555555555,45,0,5.1,9 9 9 9 9,6 7 8 6 7,3 2 1 3 2,-0,stay,2,1
210,6,6,1,80,63,63,2,8.72165619000043,14.362473520001,0.75,0.8,5,0,5.3,1 1 1 1 1,1 1 0 1 1,0 0 1 0 0,1,copy,2.75,1
210,7,7,1,24,32,39,2,6.716822389998924,7.07672382000055,0.25,0.24444444444444444,45,0,4.8,9 9 9 9 9,1 2 2 3 3,8 7 7 6 6,0.5333333333333333,compromise,2,1
210,9,9,1,20,10,2,1,6.619977489998746,6.70877662000112,0.125,0.2,5,0,4.3,1 1 1 1 1,0 1 0 0 0,1 0 1 1 1,0.5555555555555556,compromise,2.75,1
210,11,11,1,36,44,53,2,6.5824161900000036,5.9431368200012,0.375,0.37777777777777777,45,0,4.7,9 9 9 9 9,3 4 4 2 4,6 5 5 7 5,0.47058823529411764,compromise,2,1
210,13,13,1,80,75,62,1,7.866565889999947,5.6379437200012,0.75,0.8,5,0,4.6,1 1 1 1 1,0 1 1 1 1,1 0 0 0 0,0.2777777777777778,compromise,2.75,1
210,14,14,1,14,13,1,2,6.6826840900002935,4.1980611200006,0.125,0.13333333333333333,45,0,4.5,9 9 9 9 9,1 1 1 1 2,8 8 8 8 7,0.07692307692307693,compromise,2,1
210,15,15,1,34,37,52,1,7.446629990000474,4.43925502000093,0.375,0.37777777777777777,45,0,5.3,9 9 9 9 9,4 2 5 4 2,5 7 4 5 7,0.16666666666666666,compromise,2,1
210,16,16,1,24,26,40,3,4.583632589999979,6.82272332000048,0.25,0.24444444444444444,45,0,5.5,9 9 9 9 9,1 3 1 4 2,8 6 8 5 7,0.125,compromise,2,1
210,17,17,1,64,54,46,3,10.317390190000879,7.07856242000071,0.625,0.6222222222222222,45,0,4.2,9 9 9 9 9,6 7 5 5 5,3 2 4 4 4,0.5555555555555556,compromise,2,1
210,18,18,1,20,28,37,3,4.724279690000003,7.65394962000119,0.25,0.2,5,0,5.5,1 1 1 1 1,0 0 0 1 0,1 1 1 0 1,0.47058823529411764,compromise,2.75,1
210,19,19,1,64,61,49,1,7.91598588999932,4.49525412000094,0.625,0.6222222222222222,45,0,4,9 9 9 9 9,6 8 5 3 6,3 1 4 6 3,0.2,compromise,2,1
210,20,20,1,13,15,29,1,7.13264178999998,5.13779922000049,0.125,0.13333333333333333,45,0,4.6,9 9 9 9 9,3 1 1 1 0,6 8 8 8 9,0.125,compromise,2,1
210,21,21,1,40,32,23,2,6.052645490000941,6.35987732000103,0.375,0.4,5,0,5.5,1 1 1 1 1,0 0 1 1 0,1 1 0 0 1,0.47058823529411764,compromise,2.75,1
210,22,22,1,60,68,76,3,3.1408033899997463,6.97771352000018,0.625,0.6,5,0,4.8,1 1 1 1 1,0 0 1 1 1,1 1 0 0 0,0.5,compromise,2.75,1
210,25,25,1,20,12,4,3,3.715876489999573,8.52798822000022,0.125,0.2,5,0,4.5,1 1 1 1 1,0 0 0 0 1,1 1 1 1 0,0.5,compromise,2.75,1
210,26,1,2,60,68,76,2,5.542497989999902,5.22309678999954,0.625,0.6,5,0,4.4,1 1 1 1 1,0 1 1 1 0,1 0 0 0 1,0.5,compromise,2.75,1
210,28,3,2,20,20,3,2,4.703613690000566,4.7840588199997,0.125,0.2,5,0,4.1,1 1 1 1 1,0 0 1 0 0,1 1 0 1 1,-0,stay,2.75,1
210,30,5,2,25,32,40,3,5.965807890000178,3.34356021999884,0.25,0.24444444444444444,45,0,5.8,9 9 9 9 9,3 2 0 4 2,6 7 9 5 7,0.4666666666666667,compromise,2,1
210,31,6,2,37,28,20,3,5.10742848999962,8.66805501999897,0.375,0.37777777777777777,45,0,5,9 9 9 9 9,4 2 1 4 6,5 7 8 5 3,0.5294117647058824,compromise,2,1
210,32,7,2,14,13,1,2,7.952809389999857,4.43119621999904,0.125,0.13333333333333333,45,0,4.4,9 9 9 9 9,1 2 1 2 0,8 7 8 7 9,0.07692307692307693,compromise,2,1
210,33,8,2,61,69,76,2,8.36593418999928,4.88385912000012,0.625,0.6222222222222222,45,0,5.1,9 9 9 9 9,6 4 6 6 6,3 5 3 3 3,0.5333333333333333,compromise,2,1
210,35,10,2,80,73,65,2,8.654714589999458,7.46738041999834,0.75,0.8,5,0,4.2,1 1 1 1 1,1 1 1 0 1,0 0 0 1 0,0.4666666666666667,compromise,2.75,1
210,36,11,2,20,28,37,1,5.265805389999514,1.80973812999946,0.25,0.2,5,0,4.3,1 1 1 1 1,0 1 0 0 0,1 0 1 1 1,0.47058823529411764,compromise,2.75,1
210,37,12,2,60,67,75,1,2.611168389999875,5.59614313000111,0.625,0.6,5,0,5.8,1 1 1 1 1,1 1 1 0 0,0 0 0 1 1,0.4666666666666667,compromise,2.75,1
210,38,13,2,20,14,5,1,4.669920389998879,3.74583982999957,0.125,0.2,5,0,4.7,1 1 1 1 1,0 0 0 1 0,1 1 1 0 1,0.4,compromise,2.75,1
210,39,14,2,42,32,25,3,2.9201782900008766,6.27771493,0.375,0.4,5,0,4.1,1 1 1 1 1,1 0 1 0 0,0 1 0 1 1,0.5882352941176471,compromise,2.75,1
210,40,15,2,40,33,25,2,2.5925377899984596,5.93344361999971,0.375,0.4,5,0,5.7,1 1 1 1 1,1 0 0 0 1,0 1 1 1 0,0.4666666666666667,compromise,2.75,1
210,41,16,2,76,69,60,2,7.348979989999862,5.36026151999977,0.75,0.7555555555555555,45,0,5.1,9 9 9 9 9,7 7 7 7 6,2 2 2 2 3,0.4375,compromise,2,1
210,42,17,2,25,19,10,2,3.792365889999928,5.49353311999857,0.25,0.24444444444444444,45,0,5.8,9 9 9 9 9,2 2 2 3 2,7 7 7 6 7,0.4,compromise,2,1
210,43,18,2,20,28,37,2,5.4505221899999015,3.7622770199996,0.25,0.2,5,0,4.9,1 1 1 1 1,0 0 1 0 0,1 1 0 1 1,0.47058823529411764,compromise,2.75,1
210,44,19,2,80,72,65,3,8.863321290000385,5.24147631999949,0.75,0.8,5,0,5.2,1 1 1 1 1,1 0 1 1 1,0 1 0 0 0,0.5333333333333333,compromise,2.75,1
210,45,20,2,46,51,62,3,7.874133590000383,3.97580501999983,0.625,0.6222222222222222,45,0,4.3,9 9 9 9 9,4 6 7 5 6,5 3 2 4 3,0.3125,compromise,2,1
210,46,21,2,24,31,40,1,1.9741144899990104,3.76683681999839,0.25,0.24444444444444444,45,0,5.3,9 9 9 9 9,2 3 2 3 1,7 6 7 6 8,0.4375,compromise,2,1
210,48,23,2,40,31,22,1,9.265671489999477,2.80865491999884,0.375,0.4,5,0,5.7,1 1 1 1 1,1 0 0 0 1,0 1 1 1 0,0.5,compromise,2.75,1
210,49,24,2,60,67,75,1,3.744639790000292,4.38752372999988,0.625,0.6,5,0,5.3,1 1 1 1 1,1 0 1 0 1,0 1 0 1 0,0.4666666666666667,compromise,2.75,1
210,51,1,3,15,8,1,3,2.4259888300002785,3.06822633000047,0.125,0.13333333333333333,45,0,5,9 9 9 9 9,4 0 0 1 1,5 9 9 8 8,0.5,compromise,2,1
210,52,2,3,14,8,1,3,2.7113829300014913,3.53793834000044,0.125,0.13333333333333333,45,0,4.1,9 9 9 9 9,1 1 1 1 2,8 8 8 8 7,0.46153846153846156,compromise,2,1
210,53,3,3,76,68,60,2,5.178081029999703,6.19496161000006,0.75,0.7555555555555555,45,0,5.7,9 9 9 9 9,7 6 7 7 7,2 3 2 2 2,0.5,compromise,2,1
210,54,4,3,60,68,75,3,1.6949843299998975,4.79788490999999,0.625,0.6,5,0,5,1 1 1 1 1,0 1 1 0 1,1 0 0 1 0,0.5333333333333333,compromise,2.75,1
210,55,5,3,37,45,55,2,4.457516230000692,4.84237220999967,0.375,0.37777777777777777,45,0,4.7,9 9 9 9 9,4 3 4 2 4,5 6 5 7 5,0.4444444444444444,compromise,2,1
210,56,6,3,20,12,2,2,4.053630430000339,2.96024284000032,0.125,0.2,5,0,6,1 1 1 1 1,1 0 0 0 0,0 1 1 1 1,0.4444444444444444,compromise,2.75,1
210,57,7,3,63,71,80,2,4.678504530001192,5.04981133999991,0.625,0.6222222222222222,45,0,4.6,9 9 9 9 9,8 3 6 5 6,1 6 3 4 3,0.47058823529411764,compromise,2,1
210,58,8,3,14,8,1,1,2.295059930000207,5.06944124000165,0.125,0.13333333333333333,45,0,5.2,9 9 9 9 9,2 1 1 2 0,7 8 8 7 9,0.46153846153846156,compromise,2,1
210,61,11,3,60,68,75,2,4.9632136300006096,6.12529623999944,0.625,0.6,5,0,5.8,1 1 1 1 1,1 0 1 0 1,0 1 0 1 0,0.5333333333333333,compromise,2.75,1
210,63,13,3,80,74,63,1,8.09926323000036,4.61556183999983,0.75,0.8,5,0,5.4,1 1 1 1 1,1 1 0 1 1,0 0 1 0 0,0.35294117647058826,compromise,2.75,1
210,64,14,3,40,31,23,3,3.3992713300003743,3.83268364000105,0.375,0.4,5,0,5.2,1 1 1 1 1,1 0 0 0 1,0 1 1 1 0,0.5294117647058824,compromise,2.75,1
210,65,15,3,40,34,22,1,5.84287723000034,3.98244254000019,0.375,0.4,5,0,5.6,1 1 1 1 1,1 0 1 0 0,0 1 0 1 1,0.3333333333333333,compromise,2.75,1
210,66,16,3,20,29,37,2,3.8325196300002062,5.58623613999953,0.25,0.2,5,0,5.4,1 1 1 1 1,0 1 0 0 0,1 0 1 1 1,0.5294117647058824,compromise,2.75,1
210,67,17,3,35,43,50,1,7.194920330000059,3.29867834000015,0.375,0.37777777777777777,45,0,5,9 9 9 9 9,3 4 6 3 1,6 5 3 6 8,0.5333333333333333,compromise,2,1
210,70,20,3,75,68,60,3,3.9480684300006033,4.27641814000071,0.75,0.7555555555555555,45,0,4.9,9 9 9 9 9,6 8 7 9 4,3 1 2 0 5,0.4666666666666667,compromise,2,1
210,71,21,3,75,69,60,1,4.424163630000294,5.1504033400015,0.75,0.7555555555555555,45,0,4.8,9 9 9 9 9,6 7 6 8 7,3 2 3 1 2,0.4,compromise,2,1
210,72,22,3,20,28,38,3,2.357582930000717,2.51868734000072,0.25,0.2,5,0,5.8,1 1 1 1 1,1 0 0 0 0,0 1 1 1 1,0.4444444444444444,compromise,2.75,1
210,73,23,3,40,32,25,3,5.73249123000096,3.82583350999994,0.125,0.2,5,0,5.7,1 1 1 1 1,0 0 0 1 0,1 1 1 0 1,0.5333333333333333,compromise,2.75,1
210,74,24,3,20,26,35,1,2.4990844300009485,2.32708701000047,0.25,0.2,5,0,5.2,1 1 1 1 1,1 0 0 0 0,0 1 1 1 1,0.4,compromise,2.75,1
210,75,25,3,24,31,40,1,2.6869201300005443,3.33349154000007,0.25,0.24444444444444444,45,0,5,9 9 9 9 9,2 4 1 1 3,7 5 8 8 6,0.4375,compromise,2,1
218,2,2,1,25,15,10,3,11.83827835000011,4.04403520000051,0.25,0.2,5,0,5,1 1 1 1 1,1 0 0 0 0,0 1 1 1 1,0.6666666666666666,compromise,2.75,1
218,3,3,1,25,15,10,3,12.207658950001132,7.01397110000107,0.125,0.2,5,0,4.3,1 1 1 1 1,1 0 0 0 0,0 1 1 1 1,0.6666666666666666,compromise,2.75,1
218,4,4,1,55,55,72,1,5.498472650002441,4.0397718000022,0.625,0.6222222222222222,45,0,5.4,9 9 9 9 9,4 6 5 7 6,5 3 4 2 3,0,stay,2.142857142857143,1
218,7,7,1,86,85,70,2,5.190916050001761,7.5952004000028,0.75,0.8,5,0,5.9,1 1 1 1 1,1 1 1 1 0,0 0 0 0 1,0.0625,compromise,2.75,1
218,8,8,1,37,23,20,3,4.902478650001285,3.95804170000156,0.375,0.37777777777777777,45,0,5.8,9 9 9 9 9,4 3 3 3 4,5 6 6 6 5,0.8235294117647058,compromise,2.142857142857143,1
218,10,10,1,12,20,30,2,3.8714958500004286,7.66463870000189,0.125,0.13333333333333333,45,0,4.6,9 9 9 9 9,1 1 4 0 0,8 8 5 9 9,0.4444444444444444,compromise,2.142857142857143,1
218,12,12,1,80,80,62,1,8.707445449999796,6.34509285000058,0.75,0.8,5,0,5.6,1 1 1 1 1,1 1 0 1 1,0 0 1 0 0,-0,stay,2.75,1
218,13,13,1,40,35,25,2,5.103449750000436,4.98415424999985,0.375,0.4,5,0,4.2,1 1 1 1 1,0 0 1 1 0,1 1 0 0 1,0.3333333333333333,compromise,2.75,1
218,14,14,1,15,22,30,3,7.163308850000249,4.60160124999857,0.25,0.24444444444444444,45,0,5.1,9 9 9 9 9,3 3 2 2 1,6 6 7 7 8,0.4666666666666667,compromise,2.142857142857143,1
218,16,16,1,90,80,74,3,4.565710750001017,8.11266950000027,0.75,0.8,5,0,5.4,1 1 1 1 1,1 1 1 1 0,0 0 0 0 1,0.625,compromise,2.75,1
218,17,17,1,70,60,55,3,7.811209549998239,5.52948060000199,0.625,0.6,5,0,5.6,1 1 1 1 1,1 1 0 0 1,0 0 1 1 0,0.6666666666666666,compromise,2.75,1
218,18,18,1,18,25,35,2,7.2907384499994805,5.37579500000174,0.25,0.24444444444444444,45,0,5.5,9 9 9 9 9,3 0 2 3 3,6 9 7 6 6,0.4117647058823529,compromise,2.142857142857143,1
218,19,19,1,50,50,34,1,4.999032050001915,2.71067614999993,0.375,0.37777777777777777,45,0,4.7,9 9 9 9 9,3 2 6 3 3,6 7 3 6 6,-0,stay,2.142857142857143,1
218,20,20,1,15,9,1,1,7.388326450000022,4.306040700003,0.125,0.2,5,0,4.9,1 1 1 1 1,1 0 0 0 0,0 1 1 1 1,0.42857142857142855,compromise,2.75,1
218,21,21,1,61,61,77,1,5.557634150000013,3.41772585000035,0.625,0.6222222222222222,45,0,5.8,9 9 9 9 9,5 6 7 4 6,4 3 2 5 3,0,stay,2.142857142857143,1
218,23,23,1,50,45,33,2,4.682473349999782,6.10927124999944,0.375,0.37777777777777777,45,0,4.2,9 9 9 9 9,2 5 3 3 4,7 4 6 6 5,0.29411764705882354,compromise,2.142857142857143,1
218,25,25,1,10,12,25,1,9.495070750001105,4.1576729999997,0.125,0.13333333333333333,45,0,5.2,9 9 9 9 9,1 1 1 2 1,8 8 8 7 8,0.13333333333333333,compromise,2.142857142857143,1
218,26,1,2,89,82,72,2,4.838432239997928,6.38943354000185,0.75,0.7555555555555555,45,0,5.6,9 9 9 9 9,7 6 9 5 7,2 3 0 4 2,0.4117647058823529,compromise,2.142857142857143,1
218,27,2,2,15,21,33,2,3.699225340000339,4.33731255999919,0.25,0.24444444444444444,45,0,5.5,9 9 9 9 9,2 3 2 3 1,7 6 7 6 8,0.3333333333333333,compromise,2.142857142857143,1
218,28,3,2,39,38,24,1,2.607665339999585,7.58882976000132,0.25,0.24444444444444444,45,0,5.4,9 9 9 9 9,2 5 0 2 2,7 4 9 7 7,0.06666666666666667,compromise,2.142857142857143,1
218,29,4,2,30,38,45,2,6.2328823400002875,3.77267972000118,0.375,0.4,5,0,5.7,1 1 1 1 1,1 0 1 0 0,0 1 0 1 1,0.5333333333333333,compromise,2.75,1
218,30,5,2,20,23,35,1,6.239707140000974,3.02472615999977,0.25,0.2,5,0,4.2,1 1 1 1 1,0 0 0 1 0,1 1 1 0 1,0.2,compromise,2.75,1
218,33,8,2,82,77,64,2,4.271783539999888,6.95835962000092,0.75,0.8,5,0,5.1,1 1 1 1 1,1 0 1 1 1,0 1 0 0 0,0.2777777777777778,compromise,2.75,1
218,34,9,2,90,80,75,3,3.8552221399968403,4.07674582000254,0.75,0.8,5,0,4.6,1 1 1 1 1,1 1 1 0 1,0 0 0 1 0,0.6666666666666666,compromise,2.75,1
218,36,11,2,70,65,54,2,4.51345154000046,4.23519726000086,0.625,0.6222222222222222,45,0,4.5,9 9 9 9 9,7 7 4 6 4,2 2 5 3 5,0.3125,compromise,2.142857142857143,1
218,37,12,2,26,10,10,3,4.511875339998369,2.5792323200003,0.25,0.24444444444444444,45,0,4.8,9 9 9 9 9,4 2 2 2 1,5 7 7 7 8,1,copy,2.142857142857143,1
218,38,13,2,65,65,47,1,8.480090940001901,5.01932916000078,0.625,0.6,5,0,4.2,1 1 1 1 1,0 1 1 1 0,1 0 0 0 1,-0,stay,2.75,1
218,39,14,2,77,77,62,1,5.976094440000452,3.35108931999821,0.75,0.7555555555555555,45,0,4.4,9 9 9 9 9,7 7 6 7 7,2 2 3 2 2,-0,stay,2.142857142857143,1
218,40,15,2,41,27,23,3,4.39681894000023,3.22450365999975,0.375,0.37777777777777777,45,0,4.6,9 9 9 9 9,2 3 4 4 4,7 6 5 5 5,0.7777777777777778,compromise,2.142857142857143,1
218,42,17,2,10,15,28,2,3.032816439999806,3.11381002000053,0.125,0.13333333333333333,45,0,5.8,9 9 9 9 9,1 1 2 0 2,8 8 7 9 7,0.2777777777777778,compromise,2.142857142857143,1
218,43,18,2,5,5,20,1,2.9551697400020203,1.8812450200021,0.125,0.2,5,0,5.3,1 1 1 1 1,0 1 0 0 0,1 0 1 1 1,0,stay,2.75,1
218,44,19,2,36,53,53,3,5.999458440001035,2.10520911999993,0.375,0.4,5,0,5.3,1 1 1 1 1,0 1 1 0 0,1 0 0 1 1,1,copy,2.75,1
218,45,20,2,20,25,35,2,4.312025339999309,3.0384260200007698,0.25,0.2,5,0,5.4,1 1 1 1 1,0 1 0 0 0,1 0 1 1 1,0.3333333333333333,compromise,2.75,1
218,46,21,2,56,56,72,1,3.6325956400014547,4.03058792000229,0.625,0.6,5,0,5.7,1 1 1 1 1,1 0 1 0 1,0 1 0 1 0,0,stay,2.75,1
218,47,22,2,40,35,22,1,3.6660722399992665,2.84919932000048,0.375,0.4,5,0,5.4,1 1 1 1 1,0 0 0 1 1,1 1 1 0 0,0.2777777777777778,compromise,2.75,1
218,48,23,2,65,65,50,2,5.046657840000989,2.97159682000347,0.625,0.6,5,0,4.1,1 1 1 1 1,0 1 1 1 0,1 0 0 0 1,-0,stay,2.75,1
218,49,24,2,75,65,60,3,6.348734040000636,4.02383025999916,0.625,0.6222222222222222,45,0,4.5,9 9 9 9 9,7 7 4 5 5,2 2 5 4 4,0.6666666666666666,compromise,2.142857142857143,1
218,50,25,2,15,5,1,2,2.941197939999256,2.80241321999893,0.125,0.2,5,0,5.8,1 1 1 1 1,0 1 0 0 0,1 0 1 1 1,0.7142857142857143,compromise,2.75,1
218,51,1,3,35,35,52,1,3.705147919999945,4.36733822000133,0.375,0.4,5,0,4.8,1 1 1 1 1,1 0 1 0 0,0 1 0 1 1,0,stay,2.75,1
218,52,2,3,60,65,75,2,4.43448202000036,3.02566556000056,0.625,0.6222222222222222,45,0,5.5,9 9 9 9 9,5 3 5 8 7,4 6 4 1 2,0.3333333333333333,compromise,2.142857142857143,1
218,53,3,3,77,75,59,2,4.899464520000038,3.33843655999772,0.75,0.7555555555555555,45,0,5.7,9 9 9 9 9,7 6 8 7 6,2 3 1 2 3,0.1111111111111111,compromise,2.142857142857143,1
218,56,6,3,74,77,92,1,5.412138020001294,2.78352615999938,0.75,0.7555555555555555,45,0,5.4,9 9 9 9 9,8 4 8 8 6,1 5 1 1 3,0.16666666666666666,compromise,2.142857142857143,1
218,58,8,3,10,19,25,2,4.220360220000657,3.53807856000094,0.25,0.2,5,0,4,1 1 1 1 1,0 1 0 0 0,1 0 1 1 1,0.6,compromise,2.75,1
218,59,9,3,6,22,24,3,2.532760320000307,2.89204946000064,0.125,0.2,5,0,6,1 1 1 1 1,0 0 0 0 1,1 1 1 1 0,0.8888888888888888,compromise,2.75,1
218,61,11,3,83,72,65,3,5.865990320002311,4.71663655999873,0.75,0.7555555555555555,45,0,5.1,9 9 9 9 9,8 8 7 5 6,1 1 2 4 3,0.6111111111111112,compromise,2.142857142857143,1
218,63,13,3,22,22,40,1,3.913530620000529,4.29709025999909,0.25,0.24444444444444444,45,0,4.8,9 9 9 9 9,3 2 2 1 3,6 7 7 8 6,0,stay,2.142857142857143,1
218,64,14,3,10,25,25,3,2.6754277200016077,2.73560567999994,0.125,0.13333333333333333,45,0,4.5,9 9 9 9 9,1 2 2 0 1,8 7 7 9 8,1,copy,2.142857142857143,1
218,65,15,3,99,95,82,1,3.150458920001256,3.18677976000072,0.75,0.8,5,0,4.9,1 1 1 1 1,1 0 1 1 1,0 1 0 0 0,0.23529411764705882,compromise,2.75,1
218,66,16,3,30,45,45,3,5.1134451199995965,4.16291357999762,0.375,0.4,5,0,4.5,1 1 1 1 1,1 0 0 1 0,0 1 1 0 1,1,copy,2.75,1
218,67,17,3,58,66,76,2,5.850094720000925,4.09062215999984,0.625,0.6,5,0,5.4,1 1 1 1 1,1 0 1 1 0,0 1 0 0 1,0.4444444444444444,compromise,2.75,1
218,68,18,3,6,21,21,3,4.016163219999726,3.52328316000057,0.25,0.2,5,0,5.7,1 1 1 1 1,0 0 0 1 0,1 1 1 0 1,1,copy,2.75,1
218,69,19,3,60,75,75,3,3.315887520000615,3.93365685999925,0.625,0.6,5,0,5.8,1 1 1 1 1,1 0 1 0 1,0 1 0 1 0,1,copy,2.75,1
218,70,20,3,32,35,48,1,2.0718941200029803,3.01344785999936,0.375,0.37777777777777777,45,0,5.5,9 9 9 9 9,4 4 5 4 0,5 5 4 5 9,0.1875,compromise,2.142857142857143,1
218,71,21,3,12,30,30,3,1.7537741200012533,3.830798160001,0.125,0.13333333333333333,45,0,5.6,9 9 9 9 9,1 2 0 2 1,8 7 9 7 8,1,copy,2.142857142857143,1
218,72,22,3,44,40,26,2,3.0452308200019615,4.2604589800012,0.375,0.37777777777777777,45,0,5.4,9 9 9 9 9,2 3 4 4 4,7 6 5 5 5,0.2222222222222222,compromise,2.142857142857143,1
218,73,23,3,10,10,26,1,2.5369908200009377,2.2585301600011,0.25,0.2,5,0,5.4,1 1 1 1 1,0 0 0 1 0,1 1 1 0 1,0,stay,2.75,1
218,74,24,3,10,16,28,2,1.6133995200016216,1.81759156000044,0.125,0.2,5,0,5,1 1 1 1 1,0 1 0 0 0,1 0 1 1 1,0.3333333333333333,compromise,2.75,1
218,75,25,3,10,13,28,1,2.916259120000177,2.68322896000063,0.125,0.13333333333333333,45,0,5.8,9 9 9 9 9,0 1 2 2 1,9 8 7 7 8,0.16666666666666666,compromise,2.142857142857143,1
219,1,1,1,8,14,23,2,12.468247700002394,5.51043420000497,0.125,0.13333333333333333,45,0,4.3,9 9 9 9 9,0 1 2 2 1,9 8 7 7 8,0.4,compromise,2.2857142857142856,1
219,2,2,1,87,80,69,2,8.912992399997165,8.85744740000519,0.75,0.7555555555555555,45,0,5.3,9 9 9 9 9,9 7 8 5 5,0 2 1 4 4,0.3888888888888889,compromise,2.2857142857142856,1
219,3,3,1,10,10,27,1,14.907881800001633,3.66029979999803,0.25,0.24444444444444444,45,0,4.9,9 9 9 9 9,1 2 3 2 3,8 7 6 7 6,0,stay,2.2857142857142856,1
219,4,4,1,20,31,35,3,9.999730699997599,3.48031640000409,0.25,0.2,5,0,5.7,1 1 1 1 1,0 0 0 1 0,1 1 1 0 1,0.7333333333333333,compromise,2.125,1
219,6,6,1,93,93,78,1,7.850103000000672,5.21509690000312,0.75,0.7555555555555555,45,0,5.6,9 9 9 9 9,8 6 7 8 5,1 3 2 1 4,-0,stay,2.2857142857142856,1
219,7,7,1,20,12,4,2,5.825856600000407,7.59138320000056,0.125,0.2,5,0,5.9,1 1 1 1 1,0 0 0 1 0,1 1 1 0 1,0.5,compromise,2.125,1
219,9,9,1,7,17,22,3,14.42448389999845,10.8361612000008,0.25,0.24444444444444444,45,0,5,9 9 9 9 9,3 2 1 2 3,6 7 8 7 6,0.6666666666666666,compromise,2.2857142857142856,1
219,10,10,1,40,29,24,3,7.2822397999989334,12.8510834000008,0.375,0.4,5,0,4,1 1 1 1 1,1 0 1 0 0,0 1 0 1 1,0.6875,compromise,2.125,1
219,12,12,1,77,77,61,1,7.2181623999968,4.38294769999993,0.625,0.6222222222222222,45,0,5.4,9 9 9 9 9,4 5 6 6 7,5 4 3 3 2,-0,stay,2.2857142857142856,1
219,13,13,1,20,10,3,3,6.4590749999988475,9.45182140000179,0.125,0.2,5,0,6,1 1 1 1 1,0 0 0 1 0,1 1 1 0 1,0.5882352941176471,compromise,2.125,1
219,15,15,1,30,45,48,3,4.974510800002463,2.99663760000112,0.375,0.37777777777777777,45,0,4.8,9 9 9 9 9,3 5 2 3 4,6 4 7 6 5,0.8333333333333334,compromise,2.2857142857142856,1
219,18,18,1,90,81,72,2,8.758053800000198,8.19021699999939,0.75,0.8,5,0,4.7,1 1 1 1 1,1 1 1 1 0,0 0 0 0 1,0.5,compromise,2.125,1
219,19,19,1,90,87,73,1,13.451484600002004,6.37746770000012,0.75,0.8,5,0,4.1,1 1 1 1 1,1 0 1 1 1,0 1 0 0 0,0.17647058823529413,compromise,2.125,1
219,20,20,1,20,20,38,1,9.808160500000668,9.54958929999702,0.25,0.2,5,0,5.9,1 1 1 1 1,0 0 1 0 0,1 1 0 1 1,0,stay,2.125,1
219,21,21,1,60,52,45,2,12.524533200001315,6.77576870000121,0.375,0.4,5,0,6,1 1 1 1 1,1 0 0 1 0,0 1 1 0 1,0.5333333333333333,compromise,2.125,1
219,22,22,1,42,42,25,1,9.876811800000723,8.66523699999743,0.375,0.37777777777777777,45,0,5.2,9 9 9 9 9,4 3 0 4 6,5 6 9 5 3,-0,stay,2.2857142857142856,1
219,23,23,1,20,8,2,3,6.474184499998955,3.8459526000006,0.125,0.2,5,0,5.9,1 1 1 1 1,0 0 1 0 0,1 1 0 1 1,0.6666666666666666,compromise,2.125,1
219,24,24,1,25,20,9,1,12.125731299998733,6.22277700000268,0.25,0.24444444444444444,45,0,4.6,9 9 9 9 9,4 1 1 2 3,5 8 8 7 6,0.3125,compromise,2.2857142857142856,1
219,25,25,1,20,20,5,1,7.951284999999189,2.81688900000154,0.125,0.2,5,0,5.2,1 1 1 1 1,0 1 0 0 0,1 0 1 1 1,-0,stay,2.125,1
219,26,1,2,30,30,46,1,7.584558610000386,3.59296841000469,0.375,0.37777777777777777,45,0,5.1,9 9 9 9 9,3 3 3 4 4,6 6 6 5 5,0,stay,2.2857142857142856,1
219,27,2,2,65,60,49,3,5.348274610005319,11.2286742800025,0.625,0.6222222222222222,45,0,5,9 9 9 9 9,5 4 6 7 6,4 5 3 2 3,0.3125,compromise,2.2857142857142856,1
219,28,3,2,5,5,20,3,7.841194909993646,5.41296567999962,0.125,0.13333333333333333,45,0,5.4,9 9 9 9 9,1 1 2 1 1,8 8 7 8 8,0,stay,2.2857142857142856,1
219,30,5,2,17,25,35,2,9.747651910005516,8.29367428000114,0.25,0.24444444444444444,45,0,5.7,9 9 9 9 9,3 1 2 2 3,6 8 7 7 6,0.4444444444444444,compromise,2.2857142857142856,1
219,31,6,2,60,60,75,3,7.201198910002859,9.61092678000205,0.625,0.6,5,0,4.8,1 1 1 1 1,0 0 1 1 1,1 1 0 0 0,0,stay,2.125,1
219,32,7,2,6,10,24,1,14.591395709994686,4.64435038000011,0.125,0.13333333333333333,45,0,4.1,9 9 9 9 9,2 2 1 1 0,7 7 8 8 9,0.2222222222222222,compromise,2.2857142857142856,1
219,34,9,2,83,75,66,3,13.266140410003572,4.58791118000227,0.75,0.7555555555555555,45,0,4.6,9 9 9 9 9,7 8 6 6 7,2 1 3 3 2,0.47058823529411764,compromise,2.2857142857142856,1
219,35,10,2,45,39,30,3,7.132730210003501,5.57944458000202,0.375,0.37777777777777777,45,0,4.7,9 9 9 9 9,5 0 3 5 4,4 9 6 4 5,0.4,compromise,2.2857142857142856,1
219,37,12,2,80,70,65,3,5.0346435100000235,5.56665208000413,0.75,0.8,5,0,5.7,1 1 1 1 1,1 1 0 1 1,0 0 1 0 0,0.6666666666666666,compromise,2.125,1
219,38,13,2,20,29,38,2,5.174604010000621,3.74836978000167,0.375,0.37777777777777777,45,0,4.7,9 9 9 9 9,6 3 3 4 1,3 6 6 5 8,0.5,compromise,2.2857142857142856,1
219,40,15,2,20,20,5,1,8.885950509997201,2.46415687999979,0.125,0.2,5,0,5.3,1 1 1 1 1,1 0 0 0 0,0 1 1 1 1,-0,stay,2.125,1
219,41,16,2,40,30,24,3,10.801315010001417,5.30020458000217,0.375,0.4,5,0,5,1 1 1 1 1,0 1 0 1 0,1 0 1 0 1,0.625,compromise,2.125,1
219,42,17,2,6,8,24,1,3.408873409996886,3.33371127999999,0.125,0.13333333333333333,45,0,4.3,9 9 9 9 9,1 1 1 3 0,8 8 8 6 9,0.1111111111111111,compromise,2.2857142857142856,1
219,44,19,2,60,63,77,1,5.882052210003167,4.90511558000071,0.625,0.6222222222222222,45,0,4.5,9 9 9 9 9,4 7 8 6 3,5 2 1 3 6,0.17647058823529413,compromise,2.2857142857142856,1
219,45,20,2,13,20,29,2,10.898743310004647,6.57469847999891,0.25,0.24444444444444444,45,0,4,9 9 9 9 9,2 2 2 4 1,7 7 7 5 8,0.4375,compromise,2.2857142857142856,1
219,46,21,2,30,20,15,2,5.476073409998207,2.84763128000486,0.125,0.13333333333333333,45,0,5.8,9 9 9 9 9,0 1 2 1 2,9 8 7 8 7,0.6666666666666666,compromise,2.2857142857142856,1
219,47,22,2,80,73,65,2,2.615150909998192,9.17599348000294,0.75,0.8,5,0,5.8,1 1 1 1 1,1 0 1 1 1,0 1 0 0 0,0.4666666666666667,compromise,2.125,1
219,49,24,2,24,30,40,3,4.098734110000805,4.57709118000275,0.25,0.24444444444444444,45,0,5.7,9 9 9 9 9,2 3 2 1 3,7 6 7 8 6,0.375,compromise,2.2857142857142856,1
219,50,25,2,40,34,22,1,7.365399610000168,4.50336429000527,0.375,0.4,5,0,4.5,1 1 1 1 1,0 0 0 1 1,1 1 1 0 0,0.3333333333333333,compromise,2.125,1
219,51,1,3,20,33,38,3,4.657694449997507,4.17280390000451,0.25,0.2,5,0,5.1,1 1 1 1 1,0 0 0 1 0,1 1 1 0 1,0.7222222222222222,compromise,2.125,1
219,52,2,3,80,80,63,1,7.957544649998454,5.28088969999953,0.75,0.7555555555555555,45,0,4.7,9 9 9 9 9,8 7 5 7 7,1 2 4 2 2,-0,stay,2.2857142857142856,1
219,53,3,3,20,30,37,1,8.191391649997968,5.51340180000625,0.25,0.2,5,0,5.5,1 1 1 1 1,0 1 0 0 0,1 0 1 1 1,0.5882352941176471,compromise,2.125,1
219,54,4,3,50,62,65,2,3.6823121499983245,5.09314219999942,0.625,0.6222222222222222,45,0,5,9 9 9 9 9,3 9 2 7 7,6 0 7 2 2,0.8,compromise,2.2857142857142856,1
219,56,6,3,60,67,75,2,3.880400149999332,4.34810970000035,0.625,0.6,5,0,5.3,1 1 1 1 1,1 0 1 0 1,0 1 0 1 0,0.4666666666666667,compromise,2.125,1
219,59,9,3,60,73,76,3,4.3332319500004814,3.61904190000132,0.625,0.6,5,0,4.1,1 1 1 1 1,0 1 0 1 1,1 0 1 0 0,0.8125,compromise,2.125,1
219,60,10,3,80,80,65,1,7.602150650000112,3.10435840000355,0.75,0.8,5,0,5.2,1 1 1 1 1,1 1 1 0 1,0 0 0 1 0,-0,stay,2.125,1
219,61,11,3,10,21,27,3,6.674364549999154,4.12529480000012,0.125,0.13333333333333333,45,0,5,9 9 9 9 9,2 1 1 0 2,7 8 8 9 7,0.6470588235294118,compromise,2.2857142857142856,1
219,62,12,3,60,60,75,2,6.035317749996466,2.18232070000158,0.625,0.6222222222222222,45,0,6,9 9 9 9 9,6 5 5 6 6,3 4 4 3 3,0,stay,2.2857142857142856,1
219,63,13,3,20,27,38,1,7.3283603499985475,7.30067530000088,0.375,0.4,5,0,5.3,1 1 1 1 1,0 0 1 1 0,1 1 0 0 1,0.3888888888888889,compromise,2.125,1
219,64,14,3,20,30,38,2,3.768875850000768,4.76402460000099,0.25,0.2,5,0,5.7,1 1 1 1 1,0 1 0 0 0,1 0 1 1 1,0.5555555555555556,compromise,2.125,1
219,67,17,3,45,40,30,2,2.48629345000154,8.95948555000359,0.375,0.37777777777777777,45,0,4.4,9 9 9 9 9,2 4 5 3 3,7 5 4 6 6,0.3333333333333333,compromise,2.2857142857142856,1
219,68,18,3,80,70,65,3,6.5108096499971,8.47714935000477,0.75,0.8,5,0,4.9,1 1 1 1 1,0 1 1 1 1,1 0 0 0 0,0.6666666666666666,compromise,2.125,1
219,71,21,3,86,75,70,3,6.791413549995923,3.79469225000139,0.625,0.6222222222222222,45,0,4.6,9 9 9 9 9,7 4 6 5 6,2 5 3 4 3,0.6875,compromise,2.2857142857142856,1
219,72,22,3,34,27,17,2,7.0331185499999265,4.09370755000054,0.25,0.2,5,0,5.3,1 1 1 1 1,0 0 0 1 0,1 1 1 0 1,0.4117647058823529,compromise,2.125,1
219,73,23,3,60,65,76,1,5.052067150001676,4.57764285000303,0.625,0.6,5,0,5.5,1 1 1 1 1,1 1 1 0 0,0 0 0 1 1,0.3125,compromise,2.125,1
219,75,25,3,60,69,78,2,5.2078976499979035,4.93190990000221,0.625,0.6,5,0,5.8,1 1 1 1 1,1 0 1 1 0,0 1 0 0 1,0.5,compromise,2.125,1
221,1,1,1,80,70,65,3,4.099369880000268,8.77581842000291,0.75,0.7555555555555555,45,0,4.7,9 9 9 9 9,7 5 9 5 8,2 4 0 4 1,0.6666666666666666,compromise,2.7142857142857144,1
221,2,2,1,60,65,75,1,8.290814879999743,6.06452564000119,0.625,0.6222222222222222,45,0,4.8,9 9 9 9 9,5 6 3 8 6,4 3 6 1 3,0.3333333333333333,compromise,2.7142857142857144,1
221,3,3,1,40,40,24,1,6.7384018800003105,4.67538674000025,0.375,0.4,5,0,5.5,1 1 1 1 1,0 0 1 0 1,1 1 0 1 0,-0,stay,3,1
221,4,4,1,40,40,22,2,7.78242218000014,6.71324366000135,0.375,0.4,5,0,4.7,1 1 1 1 1,1 0 1 0 0,0 1 0 1 1,-0,stay,3,1
221,5,5,1,20,25,35,2,5.724239379999744,6.22325494000052,0.25,0.24444444444444444,45,0,4.3,9 9 9 9 9,2 4 1 3 1,7 5 8 6 8,0.3333333333333333,compromise,2.7142857142857144,1
221,7,7,1,80,80,63,2,6.457586479999009,3.53548074000082,0.75,0.8,5,0,4.7,1 1 1 1 1,1 0 1 1 1,0 1 0 0 0,-0,stay,3,1
221,9,9,1,15,15,1,2,4.932588779999605,3.10048943999936,0.125,0.13333333333333333,45,0,5.5,9 9 9 9 9,2 2 0 1 1,7 7 9 8 8,-0,stay,2.7142857142857144,1
221,10,10,1,40,40,25,3,3.4490438800003176,3.48594734000017,0.375,0.4,5,0,5.1,1 1 1 1 1,0 1 0 1 0,1 0 1 0 1,-0,stay,3,1
221,11,11,1,20,15,4,3,4.199328880000394,3.44780423999964,0.125,0.13333333333333333,45,0,4,9 9 9 9 9,1 1 1 2 1,8 8 8 7 8,0.3125,compromise,2.7142857142857144,1
221,12,12,1,15,15,1,3,4.903374380000059,4.66205103999982,0.125,0.13333333333333333,45,0,4.3,9 9 9 9 9,1 1 2 1 1,8 8 7 8 8,-0,stay,2.7142857142857144,1
221,13,13,1,50,47,35,2,6.379867879999438,4.05355064000014,0.375,0.37777777777777777,45,0,5.6,9 9 9 9 9,5 2 3 4 3,4 7 6 5 6,0.2,compromise,2.7142857142857144,1
221,14,14,1,20,20,4,3,5.303387179999845,1.85410814000079,0.125,0.2,5,0,5.4,1 1 1 1 1,0 0 0 1 0,1 1 1 0 1,-0,stay,3,1
221,15,15,1,60,60,75,1,3.499279579999893,3.1785393400005,0.625,0.6,5,0,5.2,1 1 1 1 1,1 0 1 0 1,0 1 0 1 0,0,stay,3,1
221,16,16,1,20,20,38,3,4.249058479998894,8.67580734000057,0.25,0.2,5,0,4.7,1 1 1 1 1,0 1 0 0 0,1 0 1 1 1,0,stay,3,1
221,18,18,1,50,45,35,1,5.879807780000192,5.52061374000004,0.375,0.37777777777777777,45,0,5.6,9 9 9 9 9,2 3 2 6 4,7 6 7 3 5,0.3333333333333333,compromise,2.7142857142857144,1
221,20,20,1,20,16,3,1,3.699219080000148,5.49391132000073,0.125,0.13333333333333333,45,0,4.2,9 9 9 9 9,2 2 0 1 1,7 7 9 8 8,0.23529411764705882,compromise,2.7142857142857144,1
221,21,21,1,80,80,65,3,3.6741888800006564,8.70381183999962,0.75,0.8,5,0,4.2,1 1 1 1 1,1 0 1 1 1,0 1 0 0 0,-0,stay,3,1
221,25,25,1,20,25,35,3,7.607527079999272,8.00298634000046,0.25,0.2,5,0,4.4,1 1 1 1 1,0 1 0 0 0,1 0 1 1 1,0.3333333333333333,compromise,3,1
221,27,2,2,60,65,77,3,4.1660316699999385,4.678157190001,0.625,0.6,5,0,4.3,1 1 1 1 1,0 1 1 1 0,1 0 0 0 1,0.29411764705882354,compromise,3,1
221,29,4,2,55,65,73,2,5.057449070000075,6.02539488999992,0.625,0.6222222222222222,45,0,5,9 9 9 9 9,4 6 6 7 5,5 3 3 2 4,0.5555555555555556,compromise,2.7142857142857144,1
221,30,5,2,77,65,60,3,2.7548912699994617,4.44222205999995,0.625,0.6222222222222222,45,0,6,9 9 9 9 9,4 6 6 6 6,5 3 3 3 3,0.7058823529411765,compromise,2.7142857142857144,1
221,31,6,2,20,20,3,2,2.338193669998873,4.94580469000084,0.125,0.2,5,0,4.4,1 1 1 1 1,1 0 0 0 0,0 1 1 1 1,-0,stay,3,1
221,32,7,2,50,60,65,1,7.3408419699999286,5.22717355999976,0.625,0.6,5,0,5.5,1 1 1 1 1,1 1 0 0 1,0 0 1 1 0,0.6666666666666666,compromise,3,1
221,33,8,2,68,62,50,2,8.349486869999055,5.41728726000019,0.625,0.6222222222222222,45,0,5.1,9 9 9 9 9,5 5 6 7 5,4 4 3 2 4,0.3333333333333333,compromise,2.7142857142857144,1
221,34,9,2,26,26,10,1,4.103568169999562,2.17457565999939,0.125,0.13333333333333333,45,0,4.5,9 9 9 9 9,1 2 1 1 1,8 7 8 8 8,-0,stay,2.7142857142857144,1
221,35,10,2,50,41,35,3,8.821739869998964,4.01746236000054,0.25,0.24444444444444444,45,0,5.4,9 9 9 9 9,4 2 2 2 1,5 7 7 7 8,0.6,compromise,2.7142857142857144,1
221,36,11,2,20,20,3,2,3.2077099699999962,5.13661609000064,0.125,0.2,5,0,4,1 1 1 1 1,0 1 0 0 0,1 0 1 1 1,-0,stay,3,1
221,37,12,2,43,33,25,3,5.961818069999936,3.03323126000032,0.375,0.37777777777777777,45,0,5.1,9 9 9 9 9,5 4 2 4 2,4 5 7 5 7,0.5555555555555556,compromise,2.7142857142857144,1
221,38,13,2,60,65,75,2,4.482748669999637,10.6279644900005,0.625,0.6,5,0,4.4,1 1 1 1 1,1 1 0 1 0,0 0 1 0 1,0.3333333333333333,compromise,3,1
221,39,14,2,40,40,22,1,6.381273969999711,4.80297819000134,0.375,0.4,5,0,4.6,1 1 1 1 1,1 0 0 0 1,0 1 1 1 0,-0,stay,3,1
221,40,15,2,28,27,13,1,3.4283720699995683,2.96646486000009,0.25,0.24444444444444444,45,0,5.4,9 9 9 9 9,2 3 0 4 2,7 6 9 5 7,0.06666666666666667,compromise,2.7142857142857144,1
221,41,16,2,20,15,5,1,2.1215623699999924,4.8304176900001,0.125,0.2,5,0,5.6,1 1 1 1 1,0 0 0 1 0,1 1 1 0 1,0.3333333333333333,compromise,3,1
221,42,17,2,77,75,59,1,3.115712870000607,4.47695646000011,0.75,0.7555555555555555,45,0,5,9 9 9 9 9,6 8 7 7 6,3 1 2 2 3,0.1111111111111111,compromise,2.7142857142857144,1
221,44,19,2,20,20,35,1,8.636841270000332,5.09409766000044,0.25,0.2,5,0,4.3,1 1 1 1 1,0 0 1 0 0,1 1 0 1 1,0,stay,3,1
221,45,20,2,80,80,65,1,5.33007126999928,4.03189115999976,0.75,0.8,5,0,5.5,1 1 1 1 1,1 0 1 1 1,0 1 0 0 0,-0,stay,3,1
221,46,21,2,60,72,77,3,5.644600069999797,6.529530660001,0.625,0.6,5,0,4.1,1 1 1 1 1,1 1 0 0 1,0 0 1 1 0,0.7058823529411765,compromise,3,1
221,47,22,2,20,13,5,3,3.303694469999755,3.4440750599997,0.125,0.2,5,0,5.2,1 1 1 1 1,0 0 0 1 0,1 1 1 0 1,0.4666666666666667,compromise,3,1
221,48,23,2,74,82,90,3,3.4157418699996924,4.17964715999915,0.75,0.7555555555555555,45,0,5,9 9 9 9 9,6 8 7 7 6,3 1 2 2 3,0.5,compromise,2.7142857142857144,1
221,52,2,3,80,76,65,2,3.1825744500001747,4.33388209999976,0.75,0.8,5,0,4.4,1 1 1 1 1,0 1 1 1 1,1 0 0 0 0,0.26666666666666666,compromise,3,1
221,53,3,3,80,78,63,1,2.499075750000884,4.05963220000012,0.75,0.7555555555555555,45,0,4.2,9 9 9 9 9,8 5 8 7 6,1 4 1 2 3,0.11764705882352941,compromise,2.7142857142857144,1
221,54,4,3,58,69,75,3,2.777566650001063,2.30898520000028,0.625,0.6222222222222222,45,0,4,9 9 9 9 9,4 6 6 6 6,5 3 3 3 3,0.6470588235294118,compromise,2.7142857142857144,1
221,55,5,3,25,35,40,3,5.37815425000008,4.77079329999924,0.375,0.37777777777777777,45,0,5.2,9 9 9 9 9,4 5 3 2 3,5 4 6 7 6,0.6666666666666666,compromise,2.7142857142857144,1
221,56,6,3,21,25,37,2,3.0989716499998394,3.19464340000013,0.25,0.2,5,0,5.7,1 1 1 1 1,0 0 0 0 1,1 1 1 1 0,0.25,compromise,3,1
221,57,7,3,14,12,1,2,5.715519550000863,1.80680699999994,0.125,0.13333333333333333,45,0,6,9 9 9 9 9,0 2 2 1 1,9 7 7 8 8,0.15384615384615385,compromise,2.7142857142857144,1
221,58,8,3,20,15,4,1,2.690754350000134,3.82651440000063,0.125,0.2,5,0,5.1,1 1 1 1 1,0 0 0 0 1,1 1 1 1 0,0.3125,compromise,3,1
221,59,9,3,78,74,60,2,4.444955250000021,7.9096678499991,0.75,0.7555555555555555,45,0,4.6,9 9 9 9 9,5 6 7 7 9,4 3 2 2 0,0.2222222222222222,compromise,2.7142857142857144,1
221,60,10,3,80,80,63,1,3.8450237500001094,4.03125869999985,0.75,0.8,5,0,4.2,1 1 1 1 1,1 0 1 1 1,0 1 0 0 0,-0,stay,3,1
221,61,11,3,40,30,23,3,4.211881350000112,3.71383979999973,0.375,0.4,5,0,5.3,1 1 1 1 1,0 0 0 1 1,1 1 1 0 0,0.5882352941176471,compromise,3,1
221,62,12,3,20,20,36,1,5.6200693499995396,1.82615900000019,0.25,0.2,5,0,4.4,1 1 1 1 1,0 0 1 0 0,1 1 0 1 1,0,stay,3,1
221,63,13,3,80,73,65,3,3.850243250000858,9.1495416000007,0.75,0.8,5,0,5.8,1 1 1 1 1,1 1 1 0 1,0 0 0 1 0,0.4666666666666667,compromise,3,1
221,66,16,3,20,29,35,2,3.8034934500001327,2.35008749999997,0.25,0.2,5,0,4.7,1 1 1 1 1,0 0 1 0 0,1 1 0 1 1,0.6,compromise,3,1
221,67,17,3,41,34,25,1,4.786843049999334,3.19932720000088,0.375,0.37777777777777777,45,0,4.7,9 9 9 9 9,3 3 4 5 2,6 6 5 4 7,0.4375,compromise,2.7142857142857144,1
221,69,19,3,32,28,14,1,5.982461650000914,3.78031950000059,0.25,0.24444444444444444,45,0,4.5,9 9 9 9 9,4 1 1 2 3,5 8 8 7 6,0.2222222222222222,compromise,2.7142857142857144,1
221,72,22,3,33,25,15,3,3.1991687500003536,3.41572000000087,0.25,0.24444444444444444,45,0,5.4,9 9 9 9 9,4 0 2 2 3,5 9 7 7 6,0.4444444444444444,compromise,2.7142857142857144,1
221,74,24,3,51,48,34,2,2.699118850000559,3.9386798000005,0.375,0.37777777777777777,45,0,4.2,9 9 9 9 9,3 4 5 1 4,6 5 4 8 5,0.17647058823529413,compromise,2.7142857142857144,1
221,75,25,3,23,25,41,2,2.923877850000281,4.64676519999921,0.25,0.24444444444444444,45,0,5.3,9 9 9 9 9,2 4 1 1 3,7 5 8 8 6,0.1111111111111111,compromise,2.7142857142857144,1
223,1,1,1,40,35,25,2,12.496472000000722,6.33657549999907,0.375,0.4,5,0,4.3,1 1 1 1 1,1 0 1 0 0,0 1 0 1 1,0.3333333333333333,compromise,2.375,1
223,2,2,1,85,75,69,3,10.465773100000206,8.56083869999975,0.75,0.7555555555555555,45,0,5.2,9 9 9 9 9,6 8 7 5 8,3 1 2 4 1,0.625,compromise,1.4285714285714286,1
223,3,3,1,65,65,49,1,3.9115645000001678,9.72924069999954,0.625,0.6222222222222222,45,0,4.2,9 9 9 9 9,6 7 4 6 5,3 2 5 3 4,-0,stay,1.4285714285714286,1
223,4,4,1,20,10,2,3,7.133460699999887,7.3747043999997,0.125,0.2,5,0,5.3,1 1 1 1 1,0 1 0 0 0,1 0 1 1 1,0.5555555555555556,compromise,2.375,1
223,5,5,1,17,20,35,1,11.963297199999943,4.52007909999975,0.375,0.37777777777777777,45,0,5.4,9 9 9 9 9,6 1 2 5 3,3 8 7 4 6,0.16666666666666666,compromise,1.4285714285714286,1
223,6,6,1,15,18,30,1,5.571607700000641,7.55759369999942,0.25,0.24444444444444444,45,0,5.5,9 9 9 9 9,3 3 3 2 0,6 6 6 7 9,0.2,compromise,1.4285714285714286,1
223,7,7,1,80,80,65,1,5.302943499999856,6.84137699999974,0.75,0.8,5,0,6,1 1 1 1 1,1 1 1 1 0,0 0 0 0 1,-0,stay,2.375,1
223,8,8,1,17,26,32,3,7.266887100000531,8.37790599999971,0.25,0.24444444444444444,45,0,4.6,9 9 9 9 9,2 3 3 2 1,7 6 6 7 8,0.6,compromise,1.4285714285714286,1
223,9,9,1,32,40,50,3,6.3244205000000875,6.23437999999987,0.375,0.37777777777777777,45,0,4.2,9 9 9 9 9,4 3 3 4 3,5 6 6 5 6,0.4444444444444444,compromise,1.4285714285714286,1
223,10,10,1,20,13,5,3,5.486847299999681,10.9373754999997,0.125,0.2,5,0,4.3,1 1 1 1 1,0 1 0 0 0,1 0 1 1 1,0.4666666666666667,compromise,2.375,1
223,12,12,1,20,22,37,1,7.938462500000242,5.45386119999966,0.25,0.2,5,0,5.8,1 1 1 1 1,0 0 0 1 0,1 1 1 0 1,0.11764705882352941,compromise,2.375,1
223,15,15,1,40,32,25,3,4.986214699999437,8.68392629999926,0.375,0.4,5,0,5.1,1 1 1 1 1,0 0 1 1 0,1 1 0 0 1,0.5333333333333333,compromise,2.375,1
223,16,16,1,15,13,1,2,3.024177599999348,15.4055520999991,0.125,0.13333333333333333,45,0,5.5,9 9 9 9 9,1 2 0 1 2,8 7 9 8 7,0.14285714285714285,compromise,1.4285714285714286,1
223,17,17,1,84,78,66,1,5.163428099999692,7.51863469999989,0.75,0.7555555555555555,45,0,5,9 9 9 9 9,3 9 8 7 7,6 0 1 2 2,0.3333333333333333,compromise,1.4285714285714286,1
223,18,18,1,80,75,65,2,7.390762199999699,5.34233469999981,0.75,0.8,5,0,4.9,1 1 1 1 1,1 1 1 1 0,0 0 0 0 1,0.3333333333333333,compromise,2.375,1
223,20,20,1,20,16,2,2,9.34935889999997,8.80624579999949,0.125,0.2,5,0,4.6,1 1 1 1 1,0 0 0 0 1,1 1 1 1 0,0.2222222222222222,compromise,2.375,1
223,21,21,1,20,20,5,1,3.7037546000001385,2.85546229999909,0.125,0.2,5,0,4.9,1 1 1 1 1,0 0 1 0 0,1 1 0 1 1,-0,stay,2.375,1
223,23,23,1,76,69,59,2,9.492697800000315,8.6870672999994,0.75,0.7555555555555555,45,0,4.9,9 9 9 9 9,8 7 6 7 6,1 2 3 2 3,0.4117647058823529,compromise,1.4285714285714286,1
223,24,24,1,20,27,35,3,4.163354100000106,5.86676829999942,0.25,0.2,5,0,5.2,1 1 1 1 1,0 0 0 1 0,1 1 1 0 1,0.4666666666666667,compromise,2.375,1
223,25,25,1,19,27,35,1,6.746757199999593,5.4486825999993,0.25,0.24444444444444444,45,0,5.4,9 9 9 9 9,4 1 3 1 2,5 8 6 8 7,0.5,compromise,1.4285714285714286,1
223,26,1,2,12,19,27,3,9.632658179999453,9.35087507999924,0.125,0.13333333333333333,45,0,5.8,9 9 9 9 9,1 0 3 2 0,8 9 6 7 9,0.4666666666666667,compromise,1.4285714285714286,1
223,27,2,2,80,75,65,3,5.399158779999198,9.1926120399994,0.75,0.8,5,0,5.7,1 1 1 1 1,1 1 0 1 1,0 0 1 0 0,0.3333333333333333,compromise,2.375,1
223,28,3,2,66,60,50,3,8.154958279999846,4.57369973999994,0.625,0.6222222222222222,45,0,4.9,9 9 9 9 9,6 6 4 7 5,3 3 5 2 4,0.375,compromise,1.4285714285714286,1
223,30,5,2,12,17,28,1,5.3796954799991,4.78594564000014,0.125,0.13333333333333333,45,0,4.2,9 9 9 9 9,2 0 1 1 2,7 9 8 8 7,0.3125,compromise,1.4285714285714286,1
223,31,6,2,47,36,30,3,13.725965579998956,9.25751354000022,0.25,0.24444444444444444,45,0,5.6,9 9 9 9 9,1 3 0 2 5,8 6 9 7 4,0.6470588235294118,compromise,1.4285714285714286,1
223,33,8,2,40,35,24,1,8.244583879999482,5.01163903999986,0.375,0.4,5,0,5.1,1 1 1 1 1,1 0 1 0 0,0 1 0 1 1,0.3125,compromise,2.375,1
223,34,9,2,22,18,5,1,4.863285879999239,6.0378859399998,0.125,0.13333333333333333,45,0,5.6,9 9 9 9 9,1 1 2 1 1,8 8 7 8 8,0.23529411764705882,compromise,1.4285714285714286,1
223,35,10,2,74,82,91,3,7.674059579999266,8.64328623999972,0.75,0.7555555555555555,45,0,4.1,9 9 9 9 9,6 7 7 6 8,3 2 2 3 1,0.47058823529411764,compromise,1.4285714285714286,1
223,36,11,2,40,30,22,3,6.157552980000219,13.78216324,0.375,0.4,5,0,4.4,1 1 1 1 1,0 1 1 0 0,1 0 0 1 1,0.5555555555555556,compromise,2.375,1
223,37,12,2,20,15,3,2,5.177954379999392,8.73010843999964,0.125,0.2,5,0,4.9,1 1 1 1 1,0 0 1 0 0,1 1 0 1 1,0.29411764705882354,compromise,2.375,1
223,39,14,2,40,33,25,2,3.978297279999424,5.27110814000025,0.375,0.4,5,0,5.3,1 1 1 1 1,1 0 1 0 0,0 1 0 1 1,0.4666666666666667,compromise,2.375,1
223,40,15,2,59,63,75,1,5.457714979999764,3.95306324000012,0.625,0.6222222222222222,45,0,4.2,9 9 9 9 9,6 7 3 6 6,3 2 6 3 3,0.25,compromise,1.4285714285714286,1
223,41,16,2,16,24,31,2,4.9490439800001695,6.25237123999887,0.25,0.24444444444444444,45,0,5.4,9 9 9 9 9,2 3 2 2 2,7 6 7 7 7,0.5333333333333333,compromise,1.4285714285714286,1
223,42,17,2,20,18,3,1,6.87425377999989,5.67089914000007,0.125,0.2,5,0,4.5,1 1 1 1 1,0 1 0 0 0,1 0 1 1 1,0.11764705882352941,compromise,2.375,1
223,43,18,2,35,42,50,2,6.714610479999465,7.58809913999903,0.375,0.37777777777777777,45,0,4.8,9 9 9 9 9,5 1 4 3 4,4 8 5 6 5,0.4666666666666667,compromise,1.4285714285714286,1
223,44,19,2,44,37,27,1,8.677390179998838,3.34951423999973,0.375,0.37777777777777777,45,0,5,9 9 9 9 9,3 3 4 3 4,6 6 5 6 5,0.4117647058823529,compromise,1.4285714285714286,1
223,46,21,2,35,25,18,2,3.5380817799996294,5.18982672000038,0.25,0.24444444444444444,45,0,5.5,9 9 9 9 9,1 1 4 2 3,8 8 5 7 6,0.5882352941176471,compromise,1.4285714285714286,1
223,47,22,2,12,19,30,2,6.057559779998883,12.7967369399994,0.125,0.13333333333333333,45,0,5,9 9 9 9 9,1 2 1 0 2,8 7 8 9 7,0.3888888888888889,compromise,1.4285714285714286,1
223,48,23,2,60,72,78,3,7.949287479999839,3.85465343999931,0.625,0.6,5,0,4,1 1 1 1 1,1 0 1 0 1,0 1 0 1 0,0.6666666666666666,compromise,2.375,1
223,49,24,2,38,28,21,3,6.421749179999097,9.84226813999885,0.375,0.37777777777777777,45,0,5.3,9 9 9 9 9,4 4 4 2 3,5 5 5 7 6,0.5882352941176471,compromise,1.4285714285714286,1
223,50,25,2,80,75,65,2,6.21588778000023,10.4572178400003,0.75,0.8,5,0,5.9,1 1 1 1 1,1 1 1 1 0,0 0 0 0 1,0.3333333333333333,compromise,2.375,1
223,51,1,3,63,70,80,3,6.574459330000536,3.6309095300021,0.625,0.6222222222222222,45,0,5,9 9 9 9 9,4 5 8 6 5,5 4 1 3 4,0.4117647058823529,compromise,1.4285714285714286,1
223,52,2,3,40,35,24,1,10.419566429999577,11.2270552400005,0.375,0.4,5,0,5.5,1 1 1 1 1,0 1 1 0 0,1 0 0 1 1,0.3125,compromise,2.375,1
223,54,4,3,14,9,1,3,2.194874630000413,5.56938627,0.125,0.13333333333333333,45,0,4.4,9 9 9 9 9,1 1 2 1 1,8 8 7 8 8,0.38461538461538464,compromise,1.4285714285714286,1
223,58,8,3,30,24,12,2,12.037270630000421,4.64116994000051,0.25,0.2,5,0,5.1,1 1 1 1 1,0 0 1 0 0,1 1 0 1 1,0.3333333333333333,compromise,2.375,1
223,59,9,3,28,36,43,2,4.082655430000159,4.34973837000052,0.375,0.37777777777777777,45,0,4.5,9 9 9 9 9,4 4 3 4 2,5 5 6 5 7,0.5333333333333333,compromise,1.4285714285714286,1
223,60,10,3,77,71,60,3,7.51596353000059,6.10932804000004,0.625,0.6,5,0,4.4,1 1 1 1 1,0 0 1 1 1,1 1 0 0 0,0.35294117647058826,compromise,2.375,1
223,62,12,3,62,57,44,2,4.670283030000064,4.70585244000085,0.625,0.6,5,0,4.7,1 1 1 1 1,1 0 0 1 1,0 1 1 0 0,0.2777777777777778,compromise,2.375,1
223,63,13,3,60,62,75,1,4.179856130000189,10.0217691800008,0.625,0.6,5,0,4.7,1 1 1 1 1,0 1 0 1 1,1 0 1 0 0,0.13333333333333333,compromise,2.375,1
223,64,14,3,62,65,79,1,4.940962229999968,4.3097705400005,0.75,0.7555555555555555,45,0,5.8,9 9 9 9 9,7 6 6 8 7,2 3 3 1 2,0.17647058823529413,compromise,1.4285714285714286,1
223,65,15,3,20,29,36,2,6.104869730000246,4.15904154000054,0.25,0.2,5,0,5.8,1 1 1 1 1,1 0 0 0 0,0 1 1 1 1,0.5625,compromise,2.375,1
223,66,16,3,80,78,65,1,3.2466790300004504,3.46727994000048,0.75,0.8,5,0,4.1,1 1 1 1 1,1 1 0 1 1,0 0 1 0 0,0.13333333333333333,compromise,2.375,1
223,67,17,3,60,68,78,2,3.8491181300005337,7.63150544000018,0.625,0.6222222222222222,45,0,5.9,9 9 9 9 9,5 8 6 3 6,4 1 3 6 3,0.4444444444444444,compromise,1.4285714285714286,1
223,68,18,3,61,67,77,1,7.77423533000001,5.16333364000002,0.625,0.6,5,0,4.3,1 1 1 1 1,1 0 0 1 1,0 1 1 0 0,0.375,compromise,2.375,1
223,69,19,3,70,62,55,2,9.23387552999975,6.01085644000068,0.625,0.6222222222222222,45,0,5.6,9 9 9 9 9,5 5 7 7 4,4 4 2 2 5,0.5333333333333333,compromise,1.4285714285714286,1
223,70,20,3,80,71,62,3,8.005106529999466,7.09583497000222,0.75,0.8,5,0,4.1,1 1 1 1 1,1 1 1 0 1,0 0 0 1 0,0.5,compromise,2.375,1
223,71,21,3,20,30,38,3,6.299128829999972,5.88821474000088,0.25,0.2,5,0,4.1,1 1 1 1 1,0 1 0 0 0,1 0 1 1 1,0.5555555555555556,compromise,2.375,1
223,72,22,3,83,74,67,2,4.106318130000545,4.40765204000036,0.75,0.7555555555555555,45,0,4.9,9 9 9 9 9,7 8 6 6 7,2 1 3 3 2,0.5625,compromise,1.4285714285714286,1
223,73,23,3,60,67,78,2,3.0348746300005587,3.96430314000099,0.625,0.6,5,0,4.6,1 1 1 1 1,0 1 1 0 1,1 0 0 1 0,0.3888888888888889,compromise,2.375,1
223,75,25,3,20,24,36,1,4.380203029999393,4.5866194400005,0.25,0.2,5,0,5.5,1 1 1 1 1,0 1 0 0 0,1 0 1 1 1,0.25,compromise,2.375,1
225,1,1,1,20,25,35,3,16.941007549999995,5.57286449999992,0.25,0.2,5,0,5.5,1 1 1 1 1,1 0 0 0 0,0 1 1 1 1,0.3333333333333333,compromise,3,1
225,2,2,1,60,60,76,1,6.133495349999066,6.14623434999885,0.625,0.6,5,0,4.3,1 1 1 1 1,1 0 0 1 1,0 1 1 0 0,0,stay,3,1
225,3,3,1,10,15,26,2,11.690743850000217,5.93763035000029,0.125,0.13333333333333333,45,0,4.2,9 9 9 9 9,2 0 2 1 1,7 9 7 8 8,0.3125,compromise,2.25,1
225,5,5,1,20,25,35,3,3.4173773500006064,6.62269565000042,0.25,0.2,5,0,5,1 1 1 1 1,0 0 0 0 1,1 1 1 1 0,0.3333333333333333,compromise,3,1
225,6,6,1,80,80,62,2,4.446612650000134,3.19556430000011,0.75,0.8,5,0,5.9,1 1 1 1 1,1 1 1 0 1,0 0 0 1 0,-0,stay,3,1
225,9,9,1,55,55,70,1,6.97856585000045,1.71853135000129,0.625,0.6222222222222222,45,0,5.4,9 9 9 9 9,5 5 7 4 7,4 4 2 5 2,0,stay,2.25,1
225,10,10,1,5,13,20,3,4.566013049999128,5.97475254999972,0.125,0.13333333333333333,45,0,4.5,9 9 9 9 9,1 0 3 1 1,8 9 6 8 8,0.5333333333333333,compromise,2.25,1
225,11,11,1,20,20,37,2,6.928580750000037,3.88432760000069,0.25,0.24444444444444444,45,0,5,9 9 9 9 9,2 2 2 2 3,7 7 7 7 6,0,stay,2.25,1
225,12,12,1,40,30,24,3,8.082408149999537,10.6965038000008,0.375,0.4,5,0,5.2,1 1 1 1 1,0 1 0 0 1,1 0 1 1 0,0.625,compromise,3,1
225,14,14,1,25,30,41,2,8.253645950000646,4.2200714999999,0.375,0.37777777777777777,45,0,5.6,9 9 9 9 9,2 2 2 7 4,7 7 7 2 5,0.3125,compromise,2.25,1
225,15,15,1,40,40,23,1,3.4657172499992157,3.98465105000014,0.375,0.4,5,0,4.9,1 1 1 1 1,1 0 0 1 0,0 1 1 0 1,-0,stay,3,1
225,16,16,1,80,73,65,3,3.856279949999589,5.7408387000005,0.75,0.8,5,0,4.4,1 1 1 1 1,1 1 1 1 0,0 0 0 0 1,0.4666666666666667,compromise,3,1
225,18,18,1,5,5,20,1,6.2158377499999915,1.92005140000037,0.125,0.13333333333333333,45,0,5.7,9 9 9 9 9,1 0 1 3 1,8 9 8 6 8,0,stay,2.25,1
225,19,19,1,20,13,5,3,5.2935538499996255,4.49382745000003,0.125,0.2,5,0,5.3,1 1 1 1 1,0 1 0 0 0,1 0 1 1 1,0.4666666666666667,compromise,3,1
225,20,20,1,3,10,20,3,2.5949893500001053,6.68877510000038,0.125,0.13333333333333333,45,0,4.2,9 9 9 9 9,3 1 0 1 1,6 8 9 8 8,0.4117647058823529,compromise,2.25,1
225,21,21,1,77,70,60,3,8.894408149999435,5.40637890000016,0.75,0.7555555555555555,45,0,4.3,9 9 9 9 9,8 6 6 6 8,1 3 3 3 1,0.4117647058823529,compromise,2.25,1
225,23,23,1,40,40,24,2,5.240883750000648,5.78505359999963,0.375,0.4,5,0,4.8,1 1 1 1 1,1 0 0 1 0,0 1 1 0 1,-0,stay,3,1
225,24,24,1,70,70,53,1,10.895112950000112,5.80444180000086,0.625,0.6222222222222222,45,0,5.5,9 9 9 9 9,8 6 7 3 4,1 3 2 6 5,-0,stay,2.25,1
225,25,25,1,44,44,28,1,8.032232249999652,2.96716265000032,0.375,0.37777777777777777,45,0,5.7,9 9 9 9 9,4 4 2 3 4,5 5 7 6 5,-0,stay,2.25,1
225,26,1,2,20,13,3,3,3.465982900000199,7.50404440000057,0.125,0.2,5,0,4.9,1 1 1 1 1,0 0 0 0 1,1 1 1 1 0,0.4117647058823529,compromise,3,1
225,27,2,2,20,17,5,2,1.5718675999996776,8.63139560000036,0.125,0.2,5,0,4.6,1 1 1 1 1,0 0 1 0 0,1 1 0 1 1,0.2,compromise,3,1
225,28,3,2,40,35,25,2,7.699282200001107,6.08869610000056,0.375,0.4,5,0,4.4,1 1 1 1 1,1 0 0 1 0,0 1 1 0 1,0.3333333333333333,compromise,3,1
225,29,4,2,60,64,75,2,8.86339500000031,6.39739420000114,0.625,0.6222222222222222,45,0,5.3,9 9 9 9 9,8 3 5 7 5,1 6 4 2 4,0.26666666666666666,compromise,2.25,1
225,30,5,2,45,40,30,3,5.959321199999067,2.8532993000008,0.375,0.37777777777777777,45,0,4.9,9 9 9 9 9,3 3 3 5 3,6 6 6 4 6,0.3333333333333333,compromise,2.25,1
225,31,6,2,75,83,90,3,10.244732299999669,5.23013609999907,0.75,0.7555555555555555,45,0,5.9,9 9 9 9 9,7 6 6 6 9,2 3 3 3 0,0.5333333333333333,compromise,2.25,1
225,32,7,2,20,15,4,2,4.924490800000967,5.69101430000137,0.125,0.2,5,0,5.7,1 1 1 1 1,0 0 1 0 0,1 1 0 1 1,0.3125,compromise,3,1
225,33,8,2,59,60,75,2,9.249415600000248,5.9320834000000104,0.625,0.6222222222222222,45,0,4.5,9 9 9 9 9,4 5 6 7 6,5 4 3 2 3,0.0625,compromise,2.25,1
225,34,9,2,60,67,75,3,4.211539799999628,5.58998650000012,0.625,0.6,5,0,4.5,1 1 1 1 1,1 0 1 1 0,0 1 0 0 1,0.4666666666666667,compromise,3,1
225,35,10,2,10,19,27,3,5.649244600000202,6.53833510000095,0.25,0.24444444444444444,45,0,5.1,9 9 9 9 9,3 2 1 1 4,6 7 8 8 5,0.5294117647058824,compromise,2.25,1
225,36,11,2,20,20,5,1,3.0342994000002363,2.09573750000072,0.125,0.2,5,0,6,1 1 1 1 1,0 0 0 0 1,1 1 1 1 0,-0,stay,3,1
225,37,12,2,80,80,63,1,5.270293300000958,3.519737300001,0.75,0.8,5,0,4.5,1 1 1 1 1,1 1 1 1 0,0 0 0 0 1,-0,stay,3,1
225,38,13,2,77,77,60,1,3.557608699999946,4.02483310000116,0.75,0.7555555555555555,45,0,5.1,9 9 9 9 9,6 7 7 7 7,3 2 2 2 2,-0,stay,2.25,1
225,41,16,2,22,22,40,1,8.105158299999857,2.44193460000133,0.25,0.24444444444444444,45,0,4.4,9 9 9 9 9,2 4 2 1 2,7 5 7 8 7,0,stay,2.25,1
225,42,17,2,40,40,25,1,5.074277399999119,3.65615270000126,0.375,0.4,5,0,4.5,1 1 1 1 1,0 0 0 1 1,1 1 1 0 0,-0,stay,3,1
225,43,18,2,60,60,76,1,4.487009200001012,1.85776390000137,0.625,0.6,5,0,4.8,1 1 1 1 1,0 1 1 0 1,1 0 0 1 0,0,stay,3,1
225,44,19,2,70,62,55,3,3.1411012999997183,4.70524820000082,0.625,0.6222222222222222,45,0,5.7,9 9 9 9 9,7 6 5 4 6,2 3 4 5 3,0.5333333333333333,compromise,2.25,1
225,45,20,2,20,20,35,1,2.1277085000001534,3.05275820000043,0.25,0.2,5,0,5.6,1 1 1 1 1,0 0 0 0 1,1 1 1 1 0,0,stay,3,1
225,46,21,2,60,65,75,2,2.459457800000564,4.19357840000066,0.625,0.6,5,0,4.7,1 1 1 1 1,1 0 1 1 0,0 1 0 0 1,0.3333333333333333,compromise,3,1
225,48,23,2,60,68,76,3,2.981517499999427,6.80440950000047,0.625,0.6,5,0,5.1,1 1 1 1 1,1 0 1 1 0,0 1 0 0 1,0.5,compromise,3,1
225,50,25,2,10,10,26,1,5.590534300001309,3.76948490000177,0.125,0.13333333333333333,45,0,5.1,9 9 9 9 9,0 1 2 3 0,9 8 7 6 9,0,stay,2.25,1
225,51,1,3,80,75,65,2,4.787486419999368,3.54370071999983,0.75,0.7555555555555555,45,0,5.5,9 9 9 9 9,8 7 6 6 7,1 2 3 3 2,0.3333333333333333,compromise,2.25,1
225,52,2,3,20,25,35,2,2.579797219998909,5.56333425999946,0.25,0.2,5,0,4.7,1 1 1 1 1,0 0 0 1 0,1 1 1 0 1,0.3333333333333333,compromise,3,1
225,53,3,3,83,80,68,2,5.771962919999169,5.38563288000023,0.75,0.7555555555555555,45,0,5.4,9 9 9 9 9,7 5 8 8 6,2 4 1 1 3,0.2,compromise,2.25,1
225,54,4,3,35,25,18,3,4.6277526200001375,3.58160855999995,0.25,0.24444444444444444,45,0,5.3,9 9 9 9 9,3 0 3 4 1,6 9 6 5 8,0.5882352941176471,compromise,2.25,1
225,55,5,3,60,68,75,3,4.695109919998686,6.28935175999868,0.625,0.6222222222222222,45,0,5,9 9 9 9 9,4 6 7 5 6,5 3 2 4 3,0.5333333333333333,compromise,2.25,1
225,56,6,3,5,10,23,2,2.7258413199988354,2.77061956000034,0.125,0.13333333333333333,45,0,4.8,9 9 9 9 9,0 1 2 1 2,9 8 7 8 7,0.2777777777777778,compromise,2.25,1
225,57,7,3,40,32,24,3,5.538539619999938,5.05499935999978,0.375,0.4,5,0,4.9,1 1 1 1 1,1 0 0 0 1,0 1 1 1 0,0.5,compromise,3,1
225,58,8,3,25,34,43,3,2.790801719999763,5.9555942800007,0.375,0.37777777777777777,45,0,4.4,9 9 9 9 9,1 3 7 5 1,8 6 2 4 8,0.5,compromise,2.25,1
225,59,9,3,80,80,63,1,5.266024419999667,3.70667115999913,0.75,0.8,5,0,5.7,1 1 1 1 1,1 1 1 1 0,0 0 0 0 1,-0,stay,3,1
225,60,10,3,80,71,62,3,4.495493719999104,4.5683877599995,0.75,0.8,5,0,5.5,1 1 1 1 1,1 1 1 1 0,0 0 0 0 1,0.5,compromise,3,1
225,61,11,3,80,80,63,1,4.870392519999768,2.99078928000017,0.75,0.7555555555555555,45,0,5.9,9 9 9 9 9,8 5 7 6 8,1 4 2 3 1,-0,stay,2.25,1
225,64,14,3,18,20,34,1,6.346724019999783,5.4038822600005,0.25,0.24444444444444444,45,0,4.1,9 9 9 9 9,2 3 3 1 2,7 6 6 8 7,0.125,compromise,2.25,1
225,67,17,3,60,65,75,2,3.032595720000245,2.91219635999914,0.625,0.6,5,0,4.6,1 1 1 1 1,0 1 1 1 0,1 0 0 0 1,0.3333333333333333,compromise,3,1
225,68,18,3,41,36,23,2,2.9836564199995337,3.07087506000062,0.375,0.37777777777777777,45,0,4.8,9 9 9 9 9,3 3 4 2 5,6 6 5 7 4,0.2777777777777778,compromise,2.25,1
225,69,19,3,80,80,65,2,2.6576210200000787,5.25547045999974,0.75,0.8,5,0,4.3,1 1 1 1 1,1 1 0 1 1,0 0 1 0 0,-0,stay,3,1
225,70,20,3,20,25,37,2,3.4243559199994706,5.21315025999957,0.25,0.24444444444444444,45,0,5.8,9 9 9 9 9,2 1 4 2 2,7 8 5 7 7,0.29411764705882354,compromise,2.25,1
225,71,21,3,20,25,35,2,2.842539819999729,4.6859064600003,0.25,0.2,5,0,5.1,1 1 1 1 1,1 0 0 0 0,0 1 1 1 1,0.3333333333333333,compromise,3,1
225,72,22,3,20,20,4,1,4.078112519999195,1.26905955999973,0.125,0.2,5,0,4.5,1 1 1 1 1,0 0 0 1 0,1 1 1 0 1,-0,stay,3,1
225,73,23,3,20,20,37,1,3.792437119999704,2.51385596,0.25,0.2,5,0,4.3,1 1 1 1 1,1 0 0 0 0,0 1 1 1 1,0,stay,3,1
225,75,25,3,40,40,22,1,3.100299620000442,3.51644518000012,0.375,0.37777777777777777,45,0,5.1,9 9 9 9 9,3 2 2 4 6,6 7 7 5 3,-0,stay,2.25,1
226,1,1,1,90,80,72,2,4.82153616999949,6.10850180999932,0.75,0.8,5,0,5.9,1 1 1 1 1,1 0 1 1 1,0 1 0 0 0,0.5555555555555556,compromise,2.875,1
226,2,2,1,75,85,90,3,8.753447170000072,4.95043736000025,0.75,0.7555555555555555,45,0,4.7,9 9 9 9 9,5 8 8 6 7,4 1 1 3 2,0.6666666666666666,compromise,2.2857142857142856,1
226,3,3,1,45,40,30,1,7.461537769999268,5.42566273000011,0.375,0.37777777777777777,45,0,5.9,9 9 9 9 9,4 3 2 3 5,5 6 7 6 4,0.3333333333333333,compromise,2.2857142857142856,1
226,4,4,1,20,20,35,3,5.379735370000162,2.97059273000013,0.25,0.2,5,0,5.5,1 1 1 1 1,0 0 1 0 0,1 1 0 1 1,0,stay,2.875,1
226,5,5,1,80,80,65,3,6.149186969999391,5.77612072000011,0.75,0.8,5,0,5.4,1 1 1 1 1,1 1 1 1 0,0 0 0 0 1,-0,stay,2.875,1
226,6,6,1,15,25,30,3,4.38250336999954,6.36152162999952,0.25,0.24444444444444444,45,0,4,9 9 9 9 9,0 2 4 3 2,9 7 5 6 7,0.6666666666666666,compromise,2.2857142857142856,1
226,7,7,1,60,60,76,3,5.021521769999708,4.70452776000002,0.625,0.6,5,0,5.8,1 1 1 1 1,0 1 1 0 1,1 0 0 1 0,0,stay,2.875,1
226,8,8,1,55,55,72,1,6.873925169999893,4.31189006000022,0.625,0.6222222222222222,45,0,4.9,9 9 9 9 9,6 5 9 5 3,3 4 0 4 6,0,stay,2.2857142857142856,1
226,9,9,1,20,20,5,3,3.7323145700001987,2.29668056000082,0.125,0.2,5,0,4.2,1 1 1 1 1,1 0 0 0 0,0 1 1 1 1,-0,stay,2.875,1
226,10,10,1,15,15,32,2,4.175697169999694,5.68691152999963,0.25,0.24444444444444444,45,0,5.3,9 9 9 9 9,1 4 1 3 2,8 5 8 6 7,0,stay,2.2857142857142856,1
226,12,12,1,60,60,75,1,5.178361170000244,7.36945035999997,0.625,0.6222222222222222,45,0,4.9,9 9 9 9 9,8 5 6 3 6,1 4 3 6 3,0,stay,2.2857142857142856,1
226,13,13,1,40,40,22,2,3.690576770000007,2.05550445999961,0.375,0.4,5,0,5.8,1 1 1 1 1,0 0 1 1 0,1 1 0 0 1,-0,stay,2.875,1
226,14,14,1,35,45,50,2,3.8822859699994297,5.74679996000123,0.375,0.37777777777777777,45,0,4.8,9 9 9 9 9,4 3 5 1 4,5 6 4 8 5,0.6666666666666666,compromise,2.2857142857142856,1
226,15,15,1,20,20,2,1,3.640755769999487,1.94204026000079,0.125,0.2,5,0,5.2,1 1 1 1 1,0 0 0 0 1,1 1 1 1 0,-0,stay,2.875,1
226,16,16,1,10,15,25,2,2.4991092700010995,2.52390756000023,0.125,0.13333333333333333,45,0,4.8,9 9 9 9 9,0 2 1 2 1,9 7 8 7 8,0.3333333333333333,compromise,2.2857142857142856,1
226,20,20,1,40,40,23,3,6.88682456999959,4.70954732999962,0.375,0.37777777777777777,45,0,4.7,9 9 9 9 9,3 3 4 2 5,6 6 5 7 4,-0,stay,2.2857142857142856,1
226,21,21,1,15,15,1,1,5.371464269999706,3.15510225999969,0.125,0.13333333333333333,45,0,5.5,9 9 9 9 9,3 1 2 0 0,6 8 7 9 9,-0,stay,2.2857142857142856,1
226,22,22,1,55,55,72,3,8.55751877000057,2.21323905999998,0.625,0.6222222222222222,45,0,4.9,9 9 9 9 9,3 5 6 7 7,6 4 3 2 2,0,stay,2.2857142857142856,1
226,23,23,1,80,80,65,1,5.928377970000838,4.5893917300009,0.75,0.8,5,0,4.9,1 1 1 1 1,1 1 0 1 1,0 0 1 0 0,-0,stay,2.875,1
226,27,2,2,20,20,4,2,2.76140931000009,3.4468208799999,0.125,0.2,5,0,4.4,1 1 1 1 1,0 0 0 0 1,1 1 1 1 0,-0,stay,2.875,1
226,28,3,2,40,40,24,3,1.9027653099992676,3.19629178000014,0.375,0.4,5,0,5.8,1 1 1 1 1,1 0 0 0 1,0 1 1 1 0,-0,stay,2.875,1
226,29,4,2,20,20,35,1,4.424021609999727,3.00715407999996,0.25,0.2,5,0,4.2,1 1 1 1 1,0 0 0 0 1,1 1 1 1 0,0,stay,2.875,1
226,31,6,2,60,60,75,1,4.240777910000361,5.1326395799997,0.625,0.6,5,0,4.9,1 1 1 1 1,0 0 1 1 1,1 1 0 0 0,0,stay,2.875,1
226,32,7,2,60,60,76,1,3.533292209999672,3.46464258000015,0.625,0.6,5,0,5.1,1 1 1 1 1,0 1 1 1 0,1 0 0 0 1,0,stay,2.875,1
226,34,9,2,60,60,75,2,3.4502608100001453,3.07753197999955,0.625,0.6,5,0,5.3,1 1 1 1 1,0 0 1 1 1,1 1 0 0 0,0,stay,2.875,1
226,35,10,2,20,20,35,2,2.0944231099992976,2.21291928000028,0.25,0.2,5,0,4.1,1 1 1 1 1,0 0 0 0 1,1 1 1 1 0,0,stay,2.875,1
226,36,11,2,85,85,69,1,4.99902830999963,1.98004698000022,0.75,0.7555555555555555,45,0,4.5,9 9 9 9 9,7 8 7 6 6,2 1 2 3 3,-0,stay,2.2857142857142856,1
226,37,12,2,30,35,48,3,3.85910561000037,4.79457508000087,0.375,0.37777777777777777,45,0,5.4,9 9 9 9 9,2 6 1 4 4,7 3 8 5 5,0.2777777777777778,compromise,2.2857142857142856,1
226,38,13,2,60,60,78,3,3.6573786100007055,3.41051457999947,0.75,0.8,5,0,5.5,1 1 1 1 1,1 0 1 1 1,0 1 0 0 0,0,stay,2.875,1
226,39,14,2,80,80,63,2,3.5407868100000996,4.4046869799995,0.75,0.8,5,0,4.4,1 1 1 1 1,0 1 1 1 1,1 0 0 0 0,-0,stay,2.875,1
226,40,15,2,10,15,27,2,2.5908147100008136,3.60420067999985,0.125,0.13333333333333333,45,0,5.2,9 9 9 9 9,0 1 0 0 5,9 8 9 9 4,0.29411764705882354,compromise,2.2857142857142856,1
226,41,16,2,20,20,37,1,9.240436910000426,2.61306457999945,0.25,0.24444444444444444,45,0,4.4,9 9 9 9 9,4 2 1 2 2,5 7 8 7 7,0,stay,2.2857142857142856,1
226,42,17,2,40,40,24,1,3.2130118100012623,1.80355678000069,0.375,0.4,5,0,5.4,1 1 1 1 1,0 0 0 1 1,1 1 1 0 0,-0,stay,2.875,1
226,43,18,2,40,40,25,2,3.0073808100014503,1.97654108000006,0.375,0.4,5,0,4.9,1 1 1 1 1,1 1 0 0 0,0 0 1 1 1,-0,stay,2.875,1
226,45,20,2,20,20,5,1,2.4073645100006615,1.85854397999992,0.125,0.2,5,0,5.8,1 1 1 1 1,0 0 0 0 1,1 1 1 1 0,-0,stay,2.875,1
226,46,21,2,15,20,32,2,5.013008009999794,5.03661868000017,0.25,0.24444444444444444,45,0,5.3,9 9 9 9 9,5 1 2 1 2,4 8 7 8 7,0.29411764705882354,compromise,2.2857142857142856,1
226,47,22,2,55,63,70,3,4.349044110001159,6.70692199000041,0.625,0.6222222222222222,45,0,5.1,9 9 9 9 9,6 3 6 8 5,3 6 3 1 4,0.5333333333333333,compromise,2.2857142857142856,1
226,48,23,2,70,65,55,2,7.982477909999943,5.69652338000014,0.625,0.6222222222222222,45,0,4.5,9 9 9 9 9,7 7 3 7 4,2 2 6 2 5,0.3333333333333333,compromise,2.2857142857142856,1
226,49,24,2,15,25,31,3,5.278220410001268,3.68888547999995,0.25,0.24444444444444444,45,0,4.8,9 9 9 9 9,2 3 1 3 2,7 6 8 6 7,0.625,compromise,2.2857142857142856,1
226,51,1,3,75,82,91,3,3.1326215799999773,5.37033320000046,0.75,0.7555555555555555,45,0,5.4,9 9 9 9 9,8 5 9 6 6,1 4 0 3 3,0.4375,compromise,2.2857142857142856,1
226,52,2,3,70,75,87,2,7.0426881800003684,8.70884076000038,0.75,0.7555555555555555,45,0,5.2,9 9 9 9 9,6 7 5 7 9,3 2 4 2 0,0.29411764705882354,compromise,2.2857142857142856,1
226,53,3,3,40,40,22,1,5.5744280799999615,2.90357714000038,0.375,0.4,5,0,4.7,1 1 1 1 1,0 0 0 1 1,1 1 1 0 0,-0,stay,2.875,1
226,54,4,3,20,20,4,2,2.5744409799990535,2.81006273999992,0.125,0.2,5,0,4.7,1 1 1 1 1,0 0 0 0 1,1 1 1 1 0,-0,stay,2.875,1
226,55,5,3,20,20,35,2,1.6077159800006484,2.45357176000016,0.25,0.2,5,0,5.5,1 1 1 1 1,1 0 0 0 0,0 1 1 1 1,0,stay,2.875,1
226,56,6,3,20,20,5,3,4.1660709799998585,1.83800264000001,0.125,0.2,5,0,4.3,1 1 1 1 1,1 0 0 0 0,0 1 1 1 1,-0,stay,2.875,1
226,57,7,3,60,60,76,2,9.691816680000557,3.45564014000047,0.625,0.6,5,0,4.1,1 1 1 1 1,1 1 0 1 0,0 0 1 0 1,0,stay,2.875,1
226,58,8,3,40,40,25,3,5.261734879999494,4.12543124000058,0.375,0.4,5,0,4.7,1 1 1 1 1,0 0 1 1 0,1 1 0 0 1,-0,stay,2.875,1
226,59,9,3,60,60,75,3,4.896781980000924,2.55823604000034,0.625,0.6,5,0,5.7,1 1 1 1 1,0 1 0 1 1,1 0 1 0 0,0,stay,2.875,1
226,60,10,3,45,40,27,1,4.120303979999335,2.43017713999961,0.375,0.37777777777777777,45,0,4.7,9 9 9 9 9,3 5 1 4 4,6 4 8 5 5,0.2777777777777778,compromise,2.2857142857142856,1
226,61,11,3,25,15,8,3,7.809476180001184,3.45979864000128,0.125,0.13333333333333333,45,0,5.4,9 9 9 9 9,1 0 2 2 1,8 9 7 7 8,0.5882352941176471,compromise,2.2857142857142856,1
226,63,13,3,60,65,75,2,5.466004979999525,3.89979694000067,0.625,0.6222222222222222,45,0,4.8,9 9 9 9 9,7 7 6 4 4,2 2 3 5 5,0.3333333333333333,compromise,2.2857142857142856,1
226,64,14,3,20,20,35,3,4.649421479999546,4.84802004000176,0.25,0.2,5,0,4.2,1 1 1 1 1,0 1 0 0 0,1 0 1 1 1,0,stay,2.875,1
226,65,15,3,80,80,63,1,3.744774279998637,4.48486934000084,0.75,0.8,5,0,5.6,1 1 1 1 1,1 0 1 1 1,0 1 0 0 0,-0,stay,2.875,1
226,66,16,3,30,35,45,2,4.516802680000183,3.66662584000005,0.375,0.37777777777777777,45,0,4.7,9 9 9 9 9,2 3 4 5 3,7 6 5 4 6,0.3333333333333333,compromise,2.2857142857142856,1
226,67,17,3,20,20,35,1,2.9945245800008706,1.6230195399994,0.25,0.2,5,0,6,1 1 1 1 1,0 0 0 0 1,1 1 1 1 0,0,stay,2.875,1
226,71,21,3,55,59,70,1,7.738163679999161,4.2490649399997,0.75,0.7555555555555555,45,0,5.5,9 9 9 9 9,6 6 6 9 7,3 3 3 0 2,0.26666666666666666,compromise,2.2857142857142856,1
226,72,22,3,15,10,1,3,4.115749980000146,5.22242024000025,0.125,0.13333333333333333,45,0,4.8,9 9 9 9 9,0 3 2 1 0,9 6 7 8 9,0.35714285714285715,compromise,2.2857142857142856,1
226,73,23,3,10,20,26,1,6.253609080000388,3.99337324000044,0.125,0.13333333333333333,45,0,4.1,9 9 9 9 9,1 1 2 2 0,8 8 7 7 9,0.625,compromise,2.2857142857142856,1
226,75,25,3,25,25,10,1,4.782784580000225,2.44386794000002,0.25,0.24444444444444444,45,0,4.6,9 9 9 9 9,2 2 2 2 3,7 7 7 7 6,-0,stay,2.2857142857142856,1
229,1,1,1,19,20,35,3,9.134165120000034,11.4559218599989,0.25,0.2,5,0,5.3,1 1 1 1 1,0 0 1 0 0,1 1 0 1 1,0.0625,compromise,2.25,1
229,2,2,1,20,20,35,3,9.770074420000128,6.12620868000067,0.25,0.2,5,0,5.3,1 1 1 1 1,0 0 1 0 0,1 1 0 1 1,0,stay,2.25,1
229,4,4,1,64,58,49,1,10.224592319999829,7.06673339999998,0.625,0.6222222222222222,45,0,5.9,9 9 9 9 9,6 6 4 6 6,3 3 5 3 3,0.4,compromise,2.4285714285714284,1
229,5,5,1,10,10,27,2,4.217464319999635,1.54406834000019,0.125,0.13333333333333333,45,0,5.1,9 9 9 9 9,2 1 1 0 2,7 8 8 9 7,0,stay,2.4285714285714284,1
229,10,10,1,42,40,25,1,7.241029920000074,2.63634086000002,0.375,0.37777777777777777,45,0,5.5,9 9 9 9 9,4 2 3 2 6,5 7 6 7 3,0.11764705882352941,compromise,2.4285714285714284,1
229,11,11,1,52,52,37,2,6.521694719999687,2.67680591999942,0.375,0.37777777777777777,45,0,4.1,9 9 9 9 9,4 5 1 3 4,5 4 8 6 5,-0,stay,2.4285714285714284,1
229,12,12,1,44,44,27,3,17.382909420000033,3.57167285999913,0.375,0.4,5,0,5.9,1 1 1 1 1,1 0 0 1 0,0 1 1 0 1,-0,stay,2.25,1
229,14,14,1,15,15,1,1,2.699414620000425,2.19182718000138,0.125,0.13333333333333333,45,0,5.9,9 9 9 9 9,2 1 1 1 1,7 8 8 8 8,-0,stay,2.4285714285714284,1
229,16,16,1,42,42,24,1,7.407781719999548,3.89868795999882,0.375,0.4,5,0,5.4,1 1 1 1 1,1 0 1 0 0,0 1 0 1 1,-0,stay,2.25,1
229,17,17,1,21,22,39,2,4.152674420000039,2.49598145999971,0.25,0.24444444444444444,45,0,4,9 9 9 9 9,1 2 2 3 3,8 7 7 6 6,0.05555555555555555,compromise,2.4285714285714284,1
229,18,18,1,53,56,69,1,1.6449691199995868,6.85326066000016,0.625,0.6222222222222222,45,0,4,9 9 9 9 9,6 6 4 7 5,3 3 5 2 4,0.1875,compromise,2.4285714285714284,1
229,19,19,1,60,60,75,1,4.662011919999713,2.89885475999927,0.625,0.6,5,0,4.9,1 1 1 1 1,0 1 0 1 1,1 0 1 0 0,0,stay,2.25,1
229,20,20,1,10,12,28,3,5.030181819999598,2.411379879999,0.125,0.13333333333333333,45,0,4.7,9 9 9 9 9,0 1 2 1 2,9 8 7 8 7,0.1111111111111111,compromise,2.4285714285714284,1
229,21,21,1,20,20,5,3,8.965988719999586,3.13461206000011,0.125,0.2,5,0,4.5,1 1 1 1 1,0 0 0 1 0,1 1 1 0 1,-0,stay,2.25,1
229,23,23,1,12,12,27,3,6.161006519999319,2.07670546000099,0.125,0.13333333333333333,45,0,4.3,9 9 9 9 9,2 1 2 0 1,7 8 7 9 8,0,stay,2.4285714285714284,1
229,24,24,1,78,78,60,3,2.6243706200002634,2.31509913999798,0.75,0.8,5,0,5.1,1 1 1 1 1,0 1 1 1 1,1 0 0 0 0,-0,stay,2.25,1
229,25,25,1,76,76,61,3,3.4341357200000857,3.24388636000094,0.75,0.7555555555555555,45,0,4.2,9 9 9 9 9,7 7 8 6 6,2 2 1 3 3,-0,stay,2.4285714285714284,1
229,26,1,2,70,76,88,1,8.396745079999164,2.49604918000296,0.75,0.7555555555555555,45,0,4.5,9 9 9 9 9,7 5 8 7 7,2 4 1 2 2,0.3333333333333333,compromise,2.4285714285714284,1
229,27,2,2,22,22,6,2,4.174470679998194,2.12476823999896,0.125,0.2,5,0,5.2,1 1 1 1 1,0 0 0 1 0,1 1 1 0 1,-0,stay,2.25,1
229,28,3,2,83,83,67,1,4.721794980001505,2.25992583999869,0.75,0.8,5,0,4.7,1 1 1 1 1,1 1 0 1 1,0 0 1 0 0,-0,stay,2.25,1
229,29,4,2,18,29,35,1,3.451002880001397,0.968716139999742,0.25,0.2,5,0,4.5,1 1 1 1 1,0 0 1 0 0,1 1 0 1 1,0.6470588235294118,compromise,2.25,1
229,30,5,2,73,75,90,3,2.230097880001267,3.39136960000178,0.75,0.7555555555555555,45,0,5.2,9 9 9 9 9,7 8 6 6 7,2 1 3 3 2,0.11764705882352941,compromise,2.4285714285714284,1
229,31,6,2,52,49,34,3,2.1070625799984555,2.40394833999926,0.375,0.37777777777777777,45,0,5.3,9 9 9 9 9,3 6 1 4 3,6 3 8 5 6,0.16666666666666666,compromise,2.4285714285714284,1
229,32,7,2,56,56,72,3,3.5738875800016103,5.03128815999844,0.625,0.6222222222222222,45,0,5,9 9 9 9 9,5 5 5 6 7,4 4 4 3 2,0,stay,2.4285714285714284,1
229,33,8,2,23,22,5,3,14.400142480000795,2.28845142000137,0.125,0.2,5,0,4.3,1 1 1 1 1,0 0 0 1 0,1 1 1 0 1,0.05555555555555555,compromise,2.25,1
229,34,9,2,50,52,67,2,2.336949080001432,7.01876439999796,0.625,0.6222222222222222,45,0,4.2,9 9 9 9 9,4 9 6 5 4,5 0 3 4 5,0.11764705882352941,compromise,2.4285714285714284,1
229,35,10,2,60,64,75,1,4.453523379999751,2.87346773999889,0.625,0.6,5,0,4.6,1 1 1 1 1,1 0 1 0 1,0 1 0 1 0,0.26666666666666666,compromise,2.25,1
229,36,11,2,12,16,30,1,9.299249580000833,2.64732334000109,0.125,0.13333333333333333,45,0,4.6,9 9 9 9 9,0 2 2 0 2,9 7 7 9 7,0.2222222222222222,compromise,2.4285714285714284,1
229,38,13,2,18,18,36,1,12.4238418799996,2.02701357999831,0.25,0.24444444444444444,45,0,5.3,9 9 9 9 9,2 2 2 5 0,7 7 7 4 9,0,stay,2.4285714285714284,1
229,42,17,2,61,65,77,3,4.215855179998471,2.17053944000145,0.625,0.6,5,0,5.1,1 1 1 1 1,0 0 1 1 1,1 1 0 0 0,0.25,compromise,2.25,1
229,43,18,2,36,37,51,1,3.317725380000411,1.74467394000021,0.375,0.4,5,0,4.5,1 1 1 1 1,1 0 0 0 1,0 1 1 1 0,0.06666666666666667,compromise,2.25,1
229,44,19,2,64,64,49,2,14.398831480000808,2.87364094000077,0.625,0.6222222222222222,45,0,5.1,9 9 9 9 9,4 6 6 5 7,5 3 3 4 2,-0,stay,2.4285714285714284,1
229,45,20,2,60,62,77,2,2.038233780000155,2.29976374000034,0.625,0.6,5,0,5.1,1 1 1 1 1,1 0 1 1 0,0 1 0 0 1,0.11764705882352941,compromise,2.25,1
229,46,21,2,22,16,6,2,1.5869199799999478,1.63650516000052,0.125,0.2,5,0,5.2,1 1 1 1 1,1 0 0 0 0,0 1 1 1 1,0.375,compromise,2.25,1
229,48,23,2,19,25,35,3,3.2826711800007615,2.51422454000021,0.25,0.24444444444444444,45,0,5,9 9 9 9 9,2 1 3 0 5,7 8 6 9 4,0.375,compromise,2.4285714285714284,1
229,49,24,2,56,60,73,3,3.7325566800009256,2.07885114000055,0.625,0.6,5,0,5.1,1 1 1 1 1,1 0 1 1 0,0 1 0 0 1,0.23529411764705882,compromise,2.25,1
229,50,25,2,34,34,50,2,2.4160683800000697,2.62525094000193,0.375,0.4,5,0,5.2,1 1 1 1 1,0 0 1 1 0,1 1 0 0 1,0,stay,2.25,1
229,51,1,3,42,35,25,2,2.3493805799989786,2.11826325999937,0.375,0.37777777777777777,45,0,5.4,9 9 9 9 9,2 3 6 2 4,7 6 3 7 5,0.4117647058823529,compromise,2.4285714285714284,1
229,52,2,3,80,79,65,2,3.7660795800002234,2.54858434000016,0.75,0.8,5,0,5.4,1 1 1 1 1,1 1 0 1 1,0 0 1 0 0,0.06666666666666667,compromise,2.25,1
229,53,3,3,48,40,30,3,3.155086079998,1.53033599999981,0.375,0.37777777777777777,45,0,5.6,9 9 9 9 9,3 5 2 3 4,6 4 7 6 5,0.4444444444444444,compromise,2.4285714285714284,1
229,54,4,3,55,62,72,2,2.0575135799990676,3.068043639998,0.625,0.6,5,0,4.7,1 1 1 1 1,1 1 0 1 0,0 0 1 0 1,0.4117647058823529,compromise,2.25,1
229,55,5,3,80,78,65,2,8.057678979999764,3.14354178000212,0.75,0.7555555555555555,45,0,4.9,9 9 9 9 9,5 7 8 7 7,4 2 1 2 2,0.13333333333333333,compromise,2.4285714285714284,1
229,57,7,3,25,29,40,2,3.4407811799992487,1.39543374000095,0.25,0.24444444444444444,45,0,5.4,9 9 9 9 9,4 1 2 0 4,5 8 7 9 5,0.26666666666666666,compromise,2.4285714285714284,1
229,61,11,3,84,80,67,1,2.2549671799988573,3.19172404000165,0.75,0.8,5,0,4.4,1 1 1 1 1,1 1 0 1 1,0 0 1 0 0,0.23529411764705882,compromise,2.25,1
229,62,12,3,24,25,40,2,1.2491440799985867,1.40726043999894,0.25,0.2,5,0,5.1,1 1 1 1 1,1 0 0 0 0,0 1 1 1 1,0.0625,compromise,2.25,1
229,63,13,3,14,12,1,2,1.2538702799993189,1.10063713999989,0.125,0.13333333333333333,45,0,4.4,9 9 9 9 9,2 0 1 2 1,7 9 8 7 8,0.15384615384615385,compromise,2.4285714285714284,1
229,64,14,3,17,18,33,2,8.491069279998555,1.84879392000221,0.25,0.2,5,0,4,1 1 1 1 1,0 0 0 1 0,1 1 1 0 1,0.0625,compromise,2.25,1
229,66,16,3,79,79,63,2,4.578974680000101,2.30965753999953,0.75,0.7555555555555555,45,0,5.6,9 9 9 9 9,6 6 8 8 6,3 3 1 1 3,-0,stay,2.4285714285714284,1
229,67,17,3,64,64,46,3,2.7910786799966445,2.41110864000075,0.625,0.6222222222222222,45,0,4.6,9 9 9 9 9,7 5 5 6 5,2 4 4 3 4,-0,stay,2.4285714285714284,1
229,68,18,3,19,20,35,1,1.7535219799992774,2.40095542000017,0.25,0.24444444444444444,45,0,4.5,9 9 9 9 9,4 0 2 2 3,5 9 7 7 6,0.0625,compromise,2.4285714285714284,1
229,69,19,3,9,20,25,1,2.8159974799982592,2.86987724000028,0.25,0.2,5,0,5.8,1 1 1 1 1,0 1 0 0 0,1 0 1 1 1,0.6875,compromise,2.25,1
229,70,20,3,19,22,35,3,1.903503579998869,2.90155322000282,0.25,0.24444444444444444,45,0,4.4,9 9 9 9 9,0 3 2 2 4,9 6 7 7 5,0.1875,compromise,2.4285714285714284,1
229,71,21,3,83,80,65,3,3.08646828000019,2.63749042000018,0.75,0.8,5,0,4.2,1 1 1 1 1,1 1 0 1 1,0 0 1 0 0,0.16666666666666666,compromise,2.25,1
229,73,23,3,44,38,29,3,3.3161001799999212,1.88076303999878,0.375,0.4,5,0,5.2,1 1 1 1 1,1 0 0 1 0,0 1 1 0 1,0.4,compromise,2.25,1
232,1,1,1,41,33,25,1,9.896673180000107,10.0816664599997,0.375,0.4,5,0,5.5,1 1 1 1 1,1 1 0 0 0,0 0 1 1 1,0.5,compromise,2,1
232,3,3,1,37,36,20,3,8.742683080000461,10.65383264,0.375,0.4,5,0,4.4,1 1 1 1 1,0 1 0 1 0,1 0 1 0 1,0.058823529411764705,compromise,2,1
232,4,4,1,60,63,76,1,5.4531281800000215,5.35428894000006,0.625,0.6,5,0,5.5,1 1 1 1 1,1 0 1 0 1,0 1 0 1 0,0.1875,compromise,2,1
232,5,5,1,83,80,65,3,5.409226479999688,6.18723413999942,0.75,0.8,5,0,5.2,1 1 1 1 1,0 1 1 1 1,1 0 0 0 0,0.16666666666666666,compromise,2,1
232,6,6,1,80,76,63,1,4.524371080000037,4.81356472000016,0.75,0.7555555555555555,45,0,5.9,9 9 9 9 9,8 6 5 8 7,1 3 4 1 2,0.23529411764705882,compromise,1.8571428571428572,1
232,8,8,1,40,40,24,1,5.624265480000304,4.17874163999932,0.375,0.4,5,0,5.9,1 1 1 1 1,0 1 0 1 0,1 0 1 0 1,-0,stay,2,1
232,9,9,1,80,78,65,2,10.682420879999881,4.60156371999983,0.75,0.7555555555555555,45,0,5.4,9 9 9 9 9,6 5 8 7 8,3 4 1 2 1,0.13333333333333333,compromise,1.8571428571428572,1
232,10,10,1,30,35,45,1,4.95359247999977,3.38839043999997,0.375,0.37777777777777777,45,0,5.8,9 9 9 9 9,3 4 2 5 3,6 5 7 4 6,0.3333333333333333,compromise,1.8571428571428572,1
232,12,12,1,55,57,71,1,8.404985979999765,3.77749913999924,0.625,0.6222222222222222,45,0,4.8,9 9 9 9 9,5 6 6 6 5,4 3 3 3 4,0.125,compromise,1.8571428571428572,1
232,13,13,1,54,59,70,3,8.957442179999816,5.80668533999869,0.625,0.6222222222222222,45,0,5.6,9 9 9 9 9,5 4 7 8 4,4 5 2 1 5,0.3125,compromise,1.8571428571428572,1
232,14,14,1,80,78,65,3,8.186755079999784,3.72155463999843,0.75,0.7555555555555555,45,0,5.8,9 9 9 9 9,6 4 9 8 7,3 5 0 1 2,0.13333333333333333,compromise,1.8571428571428572,1
232,16,16,1,10,11,27,1,2.969794680000632,2.47010993999993,0.25,0.24444444444444444,45,0,4.1,9 9 9 9 9,0 3 3 3 2,9 6 6 6 7,0.058823529411764705,compromise,1.8571428571428572,1
232,17,17,1,70,77,85,2,6.315412279999691,2.26789903999997,0.75,0.7555555555555555,45,0,5.3,9 9 9 9 9,8 5 8 7 6,1 4 1 2 3,0.4666666666666667,compromise,1.8571428571428572,1
232,18,18,1,80,80,65,1,4.7276634800000465,2.57275373999983,0.75,0.8,5,0,5.6,1 1 1 1 1,0 1 1 1 1,1 0 0 0 0,-0,stay,2,1
232,20,20,1,60,60,75,2,5.396566780000285,4.33470131999911,0.625,0.6,5,0,4.6,1 1 1 1 1,1 1 1 0 0,0 0 0 1 1,0,stay,2,1
232,21,21,1,12,15,30,1,4.215919379999832,4.17519793999872,0.25,0.24444444444444444,45,0,5.6,9 9 9 9 9,1 1 3 3 3,8 8 6 6 6,0.16666666666666666,compromise,1.8571428571428572,1
232,23,23,1,40,32,25,3,3.4993210800003,5.19133551999948,0.375,0.37777777777777777,45,0,6,9 9 9 9 9,2 3 4 5 3,7 6 5 4 6,0.5333333333333333,compromise,1.8571428571428572,1
232,24,24,1,20,20,5,2,4.796766580000622,2.98146233999978,0.125,0.2,5,0,4.5,1 1 1 1 1,0 0 0 0 1,1 1 1 1 0,-0,stay,2,1
232,25,25,1,45,45,28,1,6.075864880000154,7.75346373999946,0.375,0.37777777777777777,45,0,4.4,9 9 9 9 9,4 4 2 3 4,5 5 7 6 5,-0,stay,1.8571428571428572,1
232,27,2,2,12,15,30,3,5.228016779999962,3.69478913999956,0.125,0.13333333333333333,45,0,5.6,9 9 9 9 9,2 1 2 1 0,7 8 7 8 9,0.16666666666666666,compromise,1.8571428571428572,1
232,28,3,2,22,25,37,2,9.774372279999625,3.04043393999928,0.25,0.24444444444444444,45,0,5.9,9 9 9 9 9,2 1 4 3 1,7 8 5 6 8,0.2,compromise,1.8571428571428572,1
232,29,4,2,85,84,69,1,4.888564480000241,5.38326873999995,0.75,0.7555555555555555,45,0,4.3,9 9 9 9 9,6 7 8 7 6,3 2 1 2 3,0.0625,compromise,1.8571428571428572,1
232,30,5,2,46,45,31,2,5.153514980000182,4.56583943999976,0.375,0.37777777777777777,45,0,5.5,9 9 9 9 9,4 6 0 1 6,5 3 9 8 3,0.06666666666666667,compromise,1.8571428571428572,1
232,31,6,2,80,80,63,2,4.2823769799997535,6.06647034000071,0.75,0.8,5,0,5.2,1 1 1 1 1,1 0 1 1 1,0 1 0 0 0,-0,stay,2,1
232,32,7,2,20,20,37,2,4.082787180000196,4.00332314000025,0.25,0.2,5,0,5.7,1 1 1 1 1,0 0 1 0 0,1 1 0 1 1,0,stay,2,1
232,33,8,2,19,23,35,3,5.934100980000039,3.77003354000044,0.25,0.24444444444444444,45,0,5.2,9 9 9 9 9,2 2 1 4 2,7 7 8 5 7,0.25,compromise,1.8571428571428572,1
232,35,10,2,80,80,65,2,3.971749379999892,5.10645384000054,0.75,0.8,5,0,4.4,1 1 1 1 1,1 1 0 1 1,0 0 1 0 0,-0,stay,2,1
232,36,11,2,5,10,20,2,3.557743280000068,2.39961504000075,0.125,0.13333333333333333,45,0,5.9,9 9 9 9 9,0 1 2 1 2,9 8 7 8 7,0.3333333333333333,compromise,1.8571428571428572,1
232,37,12,2,20,20,5,2,5.220131680000122,2.89810043999933,0.125,0.2,5,0,5.9,1 1 1 1 1,0 0 1 0 0,1 1 0 1 1,-0,stay,2,1
232,38,13,2,20,27,38,3,5.733572980000645,3.76848534000055,0.25,0.2,5,0,5,1 1 1 1 1,0 1 0 0 0,1 0 1 1 1,0.3888888888888889,compromise,2,1
232,39,14,2,19,23,35,3,5.521712980000302,2.08043774000089,0.25,0.24444444444444444,45,0,4.3,9 9 9 9 9,3 2 2 1 3,6 7 7 8 6,0.25,compromise,1.8571428571428572,1
232,41,16,2,19,20,35,1,7.98700308000025,3.52343283999926,0.25,0.2,5,0,5.6,1 1 1 1 1,1 0 0 0 0,0 1 1 1 1,0.0625,compromise,2,1
232,42,17,2,15,20,30,2,4.303754179999487,4.81358094000007,0.25,0.24444444444444444,45,0,5.6,9 9 9 9 9,3 2 2 2 2,6 7 7 7 7,0.3333333333333333,compromise,1.8571428571428572,1
232,43,18,2,41,40,25,2,2.8261401800000385,5.62469854000028,0.375,0.4,5,0,4.9,1 1 1 1 1,1 0 0 0 1,0 1 1 1 0,0.0625,compromise,2,1
232,45,20,2,45,45,30,3,6.542564979999952,2.09965914000077,0.375,0.37777777777777777,45,0,4.4,9 9 9 9 9,3 5 4 3 2,6 4 5 6 7,-0,stay,1.8571428571428572,1
232,46,21,2,40,40,23,2,5.509643979999964,3.21650683999997,0.375,0.4,5,0,5,1 1 1 1 1,1 0 0 1 0,0 1 1 0 1,-0,stay,2,1
232,47,22,2,45,45,29,2,5.861728679999942,4.39114204000089,0.375,0.37777777777777777,45,0,4.6,9 9 9 9 9,2 4 3 5 3,7 5 6 4 6,-0,stay,1.8571428571428572,1
232,49,24,2,40,40,22,3,7.653871679999611,2.52218001999972,0.375,0.4,5,0,5.6,1 1 1 1 1,0 0 0 1 1,1 1 1 0 0,-0,stay,2,1
232,50,25,2,20,20,35,3,4.365362579999783,3.43150223999965,0.25,0.2,5,0,5.6,1 1 1 1 1,0 1 0 0 0,1 0 1 1 1,0,stay,2,1
232,53,3,3,8,10,25,1,5.2634142599999905,2.17578388000038,0.125,0.13333333333333333,45,0,4.4,9 9 9 9 9,1 1 0 3 1,8 8 9 6 8,0.11764705882352941,compromise,1.8571428571428572,1
232,54,4,3,20,20,5,3,4.663415059999352,2.88690518000021,0.125,0.2,5,0,5,1 1 1 1 1,0 1 0 0 0,1 0 1 1 1,-0,stay,2,1
232,55,5,3,20,20,38,2,5.032452460000059,3.21740008000052,0.25,0.2,5,0,5.3,1 1 1 1 1,0 0 0 1 0,1 1 1 0 1,0,stay,2,1
232,57,7,3,60,60,75,3,5.071734460000698,4.52804907999962,0.625,0.6,5,0,5.3,1 1 1 1 1,0 0 1 1 1,1 1 0 0 0,0,stay,2,1
232,59,9,3,60,60,75,1,3.4910775600001216,5.88760457999979,0.625,0.6,5,0,5.6,1 1 1 1 1,1 0 1 1 0,0 1 0 0 1,0,stay,2,1
232,60,10,3,20,20,5,1,4.866022860000157,3.25616178000018,0.125,0.2,5,0,4.5,1 1 1 1 1,0 1 0 0 0,1 0 1 1 1,-0,stay,2,1
232,62,12,3,83,83,66,3,6.871757459999571,5.4142445799998304,0.75,0.7555555555555555,45,0,4.2,9 9 9 9 9,6 8 5 9 6,3 1 4 0 3,-0,stay,1.8571428571428572,1
232,64,14,3,60,60,75,3,2.990261159999136,3.97594568000022,0.625,0.6,5,0,5.7,1 1 1 1 1,1 1 0 1 0,0 0 1 0 1,0,stay,2,1
232,66,16,3,20,20,38,1,3.6426461600003677,2.50096467999992,0.25,0.2,5,0,5.2,1 1 1 1 1,1 0 0 0 0,0 1 1 1 1,0,stay,2,1
232,67,17,3,60,60,78,2,4.424387359999855,4.11382828000023,0.625,0.6,5,0,5.5,1 1 1 1 1,1 1 0 0 1,0 0 1 1 0,0,stay,2,1
232,68,18,3,60,60,75,1,5.592715859998862,3.40057217999947,0.625,0.6222222222222222,45,0,5.4,9 9 9 9 9,5 4 8 4 7,4 5 1 5 2,0,stay,1.8571428571428572,1
232,69,19,3,65,65,49,2,4.963261460000467,3.97491518000061,0.625,0.6222222222222222,45,0,4.5,9 9 9 9 9,5 6 6 6 5,4 3 3 3 4,-0,stay,1.8571428571428572,1
232,70,20,3,10,11,27,3,3.2145308600001954,1.84839168000053,0.125,0.13333333333333333,45,0,4.3,9 9 9 9 9,2 2 1 0 1,7 7 8 9 8,0.058823529411764705,compromise,1.8571428571428572,1
232,71,21,3,53,55,68,3,4.829916359999515,3.69157277999966,0.625,0.6222222222222222,45,0,5,9 9 9 9 9,4 6 7 4 7,5 3 2 5 2,0.13333333333333333,compromise,1.8571428571428572,1
232,72,22,3,58,60,73,2,4.680305959998805,3.29715967999982,0.625,0.6222222222222222,45,0,4.8,9 9 9 9 9,4 5 5 7 7,5 4 4 2 2,0.13333333333333333,compromise,1.8571428571428572,1
232,73,23,3,15,13,1,1,2.5023736600005577,3.12817768000059,0.125,0.13333333333333333,45,0,5,9 9 9 9 9,2 1 2 0 1,7 8 7 9 8,0.14285714285714285,compromise,1.8571428571428572,1
232,74,24,3,20,20,5,3,4.655084859999988,2.24116468000011,0.125,0.2,5,0,4.8,1 1 1 1 1,1 0 0 0 0,0 1 1 1 1,-0,stay,2,1
232,75,25,3,20,20,5,1,2.619054159999905,2.34107547999974,0.125,0.2,5,0,4.3,1 1 1 1 1,0 0 0 1 0,1 1 1 0 1,-0,stay,2,1
236,2,2,1,81,80,65,3,8.57445719999987,4.18962620000002,0.75,0.7555555555555555,45,0,4,9 9 9 9 9,6 7 7 6 8,3 2 2 3 1,0.0625,compromise,2.2857142857142856,1
236,4,4,1,85,85,70,1,2.805026199999702,4.45112909999989,0.75,0.7555555555555555,45,0,5.3,9 9 9 9 9,7 8 6 6 7,2 1 3 3 2,-0,stay,2.2857142857142856,1
236,5,5,1,80,80,63,1,5.546893999999611,2.85046270000021,0.75,0.8,5,0,4.9,1 1 1 1 1,1 0 1 1 1,0 1 0 0 0,-0,stay,1.125,1
236,6,6,1,80,80,65,2,6.1449210999999195,3.41231169999992,0.75,0.7555555555555555,45,0,4.1,9 9 9 9 9,7 7 5 6 9,2 2 4 3 0,-0,stay,2.2857142857142856,1
236,8,8,1,75,85,90,3,8.591273699999874,4.25739620000013,0.75,0.8,5,0,5.3,1 1 1 1 1,1 1 1 1 0,0 0 0 0 1,0.6666666666666666,compromise,1.125,1
236,11,11,1,60,68,76,2,6.940695799999958,3.29189940000015,0.625,0.6,5,0,5.1,1 1 1 1 1,1 0 1 0 1,0 1 0 1 0,0.5,compromise,1.125,1
236,12,12,1,15,25,30,3,4.936681899999712,8.04062529999965,0.375,0.37777777777777777,45,0,5.2,9 9 9 9 9,4 5 3 2 3,5 4 6 7 6,0.6666666666666666,compromise,2.2857142857142856,1
