sID,trialNumber,response_times,correct_order,click_order,response_correct
201,1,"[1.0467843999995239, 1.5471534999996948]","[1, 3]","[1, 3]",True
201,2,"[1.5310260000005655, 2.231110400000034]","[7, 5]","[7, 5]",True
201,3,"[0.8640300000006391, 1.331063900001027]","[3, 8]","[3, 8]",True
201,4,"[0.7967379999990953, 1.4143360999987635, 2.1805850000000646]","[1, 7, 1]","[1, 7, 1]",True
201,5,"[0.7981961000004958, 1.2143625999997312, 1.6976950000007491]","[8, 7, 5]","[8, 7, 5]",True
201,6,"[0.7641406000002462, 1.2303668000004109, 1.6975617999996757]","[7, 3, 1]","[7, 3, 1]",True
201,7,"[0.7140383000005386, 1.1140343000006396, 1.5972547000001214, 2.0806424000002153]","[3, 3, 4, 2]","[3, 3, 4, 2]",True
201,8,"[0.7308634000000893, 1.4801351000005525, 2.0643211000005977, 2.4645476000005146]","[7, 1, 4, 4]","[7, 1, 4, 4]",True
201,9,"[0.8976942999997846, 1.347826499999428, 1.9972524000004341, 2.3474141000006057]","[8, 7, 4, 3]","[8, 7, 4, 3]",True
201,10,"[0.564008900000772, 1.2138063000002148, 1.5812540000006265, 2.263870599999791, 2.831276400000206]","[5, 3, 3, 2, 5]","[5, 3, 3, 2, 5]",True
201,11,"[0.5309787999995024, 1.1138420999996015, 1.5978291999999783, 1.8970880999986548, 2.3638539999992645]","[3, 2, 3, 3, 1]","[3, 2, 3, 3, 1]",True
201,12,"[0.8136082000000897, 1.297967399999834, 1.8644102999987808, 2.2477268999991793, 2.7978751999999076]","[3, 4, 8, 7, 8]","[3, 4, 8, 7, 8]",True
201,13,"[0.780337199999849, 1.2975138000001607, 1.8807599000010669, 2.180505300000732, 2.6645470000003115, 3.363834700001462]","[3, 4, 3, 5, 5, 2]","[3, 4, 3, 3, 5, 2]",False
201,14,"[1.3472160000001168, 2.1311877999996796, 2.4975919000007707, 3.1145078000008652, 3.5314278999994713, 6.281578399999489]","[2, 6, 6, 5, 6, 6]","[2, 6, 6, 5, 6, 6]",True
201,15,"[1.797764000000825, 2.3800960000007763, 2.6802538000010827, 3.2142296000001807, 3.664698900000076, 5.681579600000987]","[8, 0, 0, 5, 8, 0]","[8, 0, 0, 5, 8, 0]",True
201,16,"[4.264698499999213, 4.830741300000227, 5.581471800000145, 6.115139199999248, 6.71411949999856, 7.031522199999017, 7.598269500000242]","[4, 6, 1, 5, 0, 0, 2]","[4, 1, 6, 5, 0, 0, 2]",False
201,17,"[1.714497199998732, 2.7475481999990734, 3.3477535999991233, 4.430781599998227, 4.9313022999995155, 5.247618199999124, 6.014407399999982]","[6, 5, 6, 1, 4, 3, 3]","[6, 5, 6, 1, 4, 3, 3]",True
201,18,"[1.2476081000004342, 1.8469861000012315, 2.4809249000009004, 4.0476206000003, 4.764135299999907, 5.0817244999998366, 5.398161000000982]","[5, 2, 6, 7, 6, 0, 8]","[5, 2, 6, 2, 0, 8, 7]",False
201,19,"[4.74908030000006, 5.1814376000002085, 5.665000000000873, 6.181714099999226, 6.41464889999952, 9.332013999999617, 10.181748200000584, 10.498284299999796]","[7, 5, 5, 4, 8, 7, 2, 3]","[7, 4, 8, 5, 5, 7, 2, 3]",False
201,20,"[2.6811367999998765, 3.164173999999548, 3.648020299999189, 4.114069900000686, 4.714858800000002, 5.597860899999432, 6.198500799999238, 6.731243399999585]","[8, 7, 3, 7, 6, 2, 6, 4]","[7, 3, 8, 2, 6, 2, 6, 4]",False
201,21,"[1.6809319000003597, 7.415043400000286, 7.915002399999139, 8.414969399998881, 8.881368199999997, 9.464631999999256, 10.53131409999878, 11.181765799999994]","[4, 3, 6, 5, 2, 1, 7, 3]","[3, 6, 5, 4, 2, 1, 0, 3]",False
202,1,"[1.2309424999994008, 2.030565399999432]","[5, 1]","[5, 1]",True
202,2,"[0.8303886000003331, 1.3306848000001992]","[2, 2]","[2, 2]",True
202,3,"[0.8304551000001084, 1.3305661000003965]","[2, 2]","[2, 2]",True
202,4,"[1.197283399999833, 1.8640489999997953, 2.4985846999998103]","[3, 0, 7]","[3, 0, 7]",True
202,5,"[0.8302466000004642, 1.4137882000004538, 2.1148611000007804]","[1, 2, 3]","[1, 2, 3]",True
202,6,"[1.3312488000001395, 1.9813190999993822, 2.61464849999993]","[5, 8, 6]","[5, 8, 6]",True
202,7,"[0.6303168000004007, 1.297204700000293, 1.9636528999999427, 2.2972742000001745]","[1, 2, 0, 0]","[1, 2, 0, 0]",True
202,8,"[0.7809864999999263, 1.4136984999995548, 2.164629099999729, 2.7145402999994985]","[6, 0, 7, 6]","[6, 0, 7, 6]",True
202,9,"[1.1811198000004879, 1.813600100000258, 2.26370980000047, 3.0478172000002814]","[7, 0, 0, 5]","[7, 0, 0, 5]",True
202,10,"[1.6148481000000174, 2.181246099999953, 7.148089700000128, 7.881667300000117, 8.415043999999398]","[7, 4, 7, 0, 4]","[4, 7, 0, 4, 4]",False
202,11,"[0.6311823999994886, 1.2306566999995994, 1.9476999999997133, 2.598023900000044, 2.997718900000109]","[6, 3, 5, 7, 2]","[6, 3, 5, 7, 2]",True
202,12,"[1.1646073000001707, 1.8483495000000403, 2.447420100000272, 3.047653900000114, 3.5649514000006093]","[8, 5, 0, 4, 8]","[8, 5, 0, 4, 8]",True
202,13,"[0.9810498999995616, 1.2141044999998485, 1.9809867000003578, 2.647703300000103, 2.847635999999511, 3.8475969999999506]","[3, 3, 4, 3, 3, 2]","[3, 3, 4, 3, 3, 2]",True
202,14,"[0.9472837999992407, 1.847546699999839, 2.6637222999997903, 3.4813451999998506, 4.282749799999692, 4.648637399999643]","[1, 4, 0, 4, 5, 5]","[1, 4, 0, 4, 5, 5]",True
202,15,"[1.3645698000000266, 2.014635200000157, 2.797188300000016, 3.432115999999951, 4.4147493999998915, 4.881406000000425]","[7, 7, 0, 7, 5, 5]","[7, 7, 0, 7, 5, 5]",True
202,16,"[0.9818388999992749, 2.015767099999721, 3.231499900000017, 4.197361999999885, 6.498827800000072, 6.981483699999444, 7.648882199999207]","[6, 5, 7, 0, 5, 3, 8]","[6, 5, 7, 0, 6, 3, 8]",False
202,17,"[5.864322999999786, 6.848889500000041, 7.464828900000612, 8.097950100000162, 8.715079200000218, 9.249010999999882, 9.38305500000024]","[1, 7, 3, 0, 1, 8, 8]","[1, 7, 3, 0, 1, 8, 8]",True
202,18,"[1.1475249999994048, 2.231792499999756, 3.4982812999996895, 5.248095199999625, 6.031328199999734, 6.93232480000006, 7.999267199999849]","[1, 8, 8, 2, 3, 8, 2]","[1, 8, 8, 2, 3, 8, 8]",False
202,19,"[0.9807167999997546, 1.9145706999997856, 2.964427099999739, 4.0983339999993404, 5.281861399999798, 6.631431599999814, 7.3819667999996454, 8.08217969999987]","[4, 7, 4, 8, 6, 4, 5, 7]","[4, 7, 4, 8, 6, 4, 7, 5]",False
202,20,"[1.3477057999998578, 1.780925500000194, 2.647843499999908, 3.39863940000032, 4.031487100000049, 4.697452600000361, 5.281006899999738, 6.1314400000001115]","[5, 5, 6, 4, 4, 7, 1, 2]","[5, 5, 6, 4, 7, 1, 2, 2]",False
202,21,"[2.231789899999967, 2.998070800000278, 3.9811922999997478, 4.748141299999588, 6.298991300000125, 6.698739299999943, 7.265318599999773, 7.4986229999994976]","[4, 7, 5, 3, 8, 8, 5, 8]","[4, 7, 5, 3, 8, 8, 5, 5]",False
203,1,"[0.8638159000001906, 1.330886400000054]","[3, 3]","[3, 3]",True
203,2,"[1.4312726000007387, 1.8642305000003034]","[3, 3]","[3, 3]",True
203,3,"[0.947613000000274, 1.7308238000005076]","[4, 5]","[4, 5]",True
203,4,"[0.7644180999996024, 1.364078900000095, 1.9813859999994747]","[6, 3, 7]","[6, 3, 7]",True
203,5,"[0.7477555000004941, 1.1974631000002773, 1.6645540999998047]","[7, 5, 8]","[7, 5, 8]",True
203,6,"[0.798234599999887, 1.198111499999868, 1.6485892000000604]","[8, 7, 2]","[8, 7, 2]",True
203,7,"[0.48020939999969414, 0.9137210999997478, 1.3487819000001764, 1.7475378999997702]","[1, 2, 4, 4]","[1, 2, 4, 4]",True
203,8,"[0.7643782999994073, 1.1479526999992231, 1.6304757999996582, 2.064044899999317]","[7, 7, 2, 3]","[7, 7, 2, 3]",True
203,9,"[0.6305699999993521, 0.9804833999996845, 1.6647386999993614, 2.1645595999998477]","[3, 3, 8, 2]","[3, 3, 8, 2]",True
203,10,"[0.7639565999998013, 1.313789199999519, 1.7637491999994381, 2.1474192999994557, 2.7973093000000517]","[4, 3, 2, 4, 2]","[4, 3, 2, 4, 2]",True
203,11,"[0.613300099999833, 1.3143494000005376, 1.7970883999996659, 2.163667499999974, 2.8808770000005097]","[0, 6, 2, 1, 4]","[0, 6, 2, 1, 4]",True
203,12,"[0.8312724999996135, 1.4640042999999423, 1.947738500000014, 2.530436899999586, 3.1142753999993147]","[6, 0, 5, 1, 4]","[6, 0, 5, 1, 4]",True
203,13,"[0.7134874000003038, 1.2825143000000025, 1.864511400000083, 2.3317667000001165, 2.714759999999842, 3.331324499999937]","[0, 8, 5, 8, 6, 2]","[0, 6, 5, 8, 5, 2]",False
203,14,"[0.6145316000001912, 1.2805984999995417, 1.813553299999512, 2.3637587000002895, 2.914219399999638, 3.430780599999707]","[8, 3, 0, 1, 4, 1]","[8, 3, 0, 1, 4, 1]",True
203,15,"[1.3142571000007592, 2.614269200000308, 3.364686700000675, 4.064061300000503, 4.614430900000116, 5.232896100000289]","[5, 1, 5, 0, 2, 8]","[5, 1, 5, 0, 2, 8]",True
203,16,"[0.6301266999998916, 1.581060499999694, 2.1815710000000763, 3.148118600000089, 6.164632199999687, 6.714272700000038, 6.9986157000003]","[1, 5, 8, 4, 8, 7, 1]","[1, 5, 4, 8, 4, 1, 7]",False
203,17,"[0.7978632000003927, 1.6805789000000004, 1.9807119999995848, 2.796857000000273, 3.347520899999836, 3.8643278999998074, 4.632966999999553]","[5, 5, 3, 0, 2, 4, 8]","[5, 3, 3, 0, 2, 4, 8]",False
203,18,"[0.94801759999973, 2.0643411000000924, 2.7643242999993163, 3.281213999999636, 3.7993718999996418, 4.431758699999591, 7.247881700000107]","[7, 3, 8, 6, 5, 8, 8]","[7, 3, 5, 6, 8, 8, 2]",False
207,1,"[0.9814889000008407, 1.847467300000062]","[2, 0]","[2, 0]",True
207,2,"[0.8144554999998945, 1.3141443000004074]","[1, 5]","[1, 5]",True
207,3,"[1.3139453000003414, 1.997526299999663]","[3, 4]","[3, 4]",True
207,4,"[0.731132400000206, 1.247103600000628, 2.0806714999998803]","[8, 2, 3]","[8, 2, 3]",True
207,5,"[1.0316041000005498, 1.4478049999997893, 2.363926400001219]","[6, 6, 2]","[6, 6, 2]",True
207,6,"[0.7139812999994319, 1.230668099999093, 1.7642922999984876]","[5, 4, 5]","[5, 4, 5]",True
207,7,"[1.1812419000016234, 1.8468311000015092, 2.347865300000194, 2.9308950000013283]","[8, 0, 7, 4]","[8, 0, 7, 4]",True
207,8,"[0.7480008000002272, 1.2138549000010244, 1.8975759000004473, 2.4485746000009385]","[8, 2, 5, 7]","[8, 2, 5, 7]",True
207,9,"[0.5966984999995475, 1.1971754000005603, 1.7814256000001478, 2.2979102000008425]","[0, 2, 8, 7]","[0, 2, 8, 7]",True
207,10,"[0.7307158000003255, 1.5825920999996015, 2.1981555000002118, 2.632149400000344, 3.280522799999744]","[2, 5, 8, 4, 0]","[2, 5, 8, 4, 0]",True
207,11,"[0.7976247000005969, 1.1489498999999341, 1.8141892000003281, 2.1643868000010116, 2.8815891000012925]","[6, 6, 4, 4, 6]","[6, 6, 4, 4, 6]",True
207,12,"[0.531279099999665, 1.114933300001212, 1.9646396000007371, 2.548064599999634, 3.064428900001076]","[7, 6, 5, 6, 4]","[7, 6, 5, 6, 4]",True
207,13,"[0.864105999999083, 2.047717299999931, 20.30134580000049, 20.93375980000019, 21.483947599999738, 22.34957199999917]","[5, 6, 8, 7, 5, 1]","[5, 6, 8, 7, 8, 1]",False
207,14,"[2.213876400001027, 3.2639955000013288, 7.797596300000805, 8.681767400001263, 9.048748799999885, 10.115757499999745]","[1, 2, 0, 5, 5, 8]","[1, 2, 0, 5, 5, 8]",True
207,15,"[1.1472115999986272, 1.614939899998717, 2.431455999998434, 3.5645552999994834, 4.2647693999988405, 4.897511499999382]","[3, 8, 6, 6, 4, 0]","[3, 8, 6, 6, 4, 0]",True
207,16,"[0.8969973000002938, 1.5146242000009806, 2.2310937000002014, 10.333378000001176, 11.015811000001122, 11.882230300001538, 17.61657060000107]","[1, 6, 3, 1, 5, 7, 2]","[1, 6, 3, 5, 7, 2, 7]",False
207,17,"[2.897752099999707, 3.764128900000287, 4.3480925999992905, 6.765186200000244, 7.348687699999573, 8.164391099999193, 9.614463800000522]","[5, 7, 6, 8, 2, 6, 0]","[5, 2, 6, 7, 8, 0, 0]",False
207,18,"[0.8643229000008432, 1.5969249000008858, 2.480271200000061, 2.963975599999685, 7.748505999999907, 8.831402600000729, 10.59826559999965]","[7, 0, 1, 0, 0, 6, 0]","[7, 1, 0, 0, 6, 0, 0]",False
210,1,"[1.01457709999886, 2.2135060999989946]","[7, 0]","[7, 0]",True
210,2,"[0.8473288999994111, 1.3305610999996134]","[4, 4]","[4, 4]",True
210,3,"[1.0476945999998861, 1.9806172999997216]","[6, 2]","[6, 2]",True
210,4,"[0.8149159000004147, 1.6640704999990703, 2.4805347999990772]","[3, 5, 4]","[3, 5, 4]",True
210,5,"[0.6966659000008804, 1.9312021999994613, 2.6805024999994203]","[0, 7, 1]","[0, 7, 1]",True
210,6,"[1.5803801999991265, 2.8814852999985305, 3.498491099999228]","[2, 5, 5]","[2, 5, 5]",True
210,7,"[1.0977117000002181, 1.864062799999374, 2.214101199999277, 3.1150067999988096]","[5, 4, 4, 7]","[5, 4, 4, 7]",True
210,8,"[1.0310067999998864, 1.9473005999989255, 2.7637199999990116, 3.44790169999942]","[6, 3, 0, 1]","[6, 3, 0, 1]",True
210,9,"[0.9636611999994784, 2.2148871999997937, 2.7319013999986055, 3.664223399999173]","[2, 7, 7, 3]","[2, 7, 7, 3]",True
210,10,"[0.8635442000013427, 1.2137720999999146, 1.9312055000009423, 2.3978399000006902, 3.4816478000011557]","[1, 1, 7, 7, 6]","[1, 1, 7, 7, 6]",True
210,11,"[1.181136900000638, 1.647853500000565, 2.897012299999915, 3.6648558000015328, 4.581470800001625]","[8, 8, 0, 8, 7]","[8, 8, 0, 8, 7]",True
210,12,"[1.0976441000002524, 2.163812200000393, 2.7827873999995063, 3.7973851000006107, 4.764539899999363]","[7, 0, 8, 2, 5]","[7, 0, 8, 2, 5]",True
210,13,"[0.9308201999992889, 1.7147557999996934, 2.380187799999476, 3.1146052999993117, 4.88147410000056, 5.564327199999752]","[6, 4, 6, 0, 7, 3]","[6, 4, 0, 6, 7, 3]",False
210,14,"[1.0141358000000764, 1.8973286000000371, 2.5968591000000742, 3.1974902999991173, 3.898256799999217, 4.597255099999529]","[5, 2, 0, 4, 7, 1]","[5, 2, 0, 4, 7, 1]",True
210,15,"[0.7635462999987794, 1.4144176999998308, 1.7978200999987166, 2.314294300000256, 3.998493299999609, 4.648090700000466]","[1, 7, 7, 3, 6, 4]","[1, 7, 7, 3, 4, 6]",False
210,16,"[1.7634295999996539, 2.3974170999990747, 2.998098199999731, 4.04745119999825, 4.81391529999928, 5.247313599998961, 5.848159099999975]","[0, 4, 5, 2, 1, 1, 5]","[0, 4, 5, 2, 1, 1, 5]",True
210,17,"[1.1472224999997707, 1.9315635999992082, 2.7146635000008246, 3.547471300000325, 4.21427070000027, 4.897513699999763, 5.464343999999983]","[4, 7, 8, 3, 4, 1, 0]","[4, 8, 7, 1, 3, 0, 1]",False
210,18,"[1.3148251000002347, 2.064163200000621, 2.7474151000005804, 3.8476029000012204, 4.748291900001277, 5.430620300001465, 6.147547100001248]","[8, 3, 1, 4, 6, 8, 2]","[8, 3, 1, 4, 6, 0, 2]",False
210,19,"[1.0141201000005822, 1.6644059999998717, 2.6801923000002716, 4.764323899998999, 5.315964199999144, 6.097598000000289, 6.797889600000417, 10.032574799999566]","[6, 5, 0, 3, 8, 2, 8, 1]","[6, 5, 0, 3, 8, 2, 1, 2]",False
210,20,"[0.7804765999990195, 1.847058899998956, 2.9317546999991464, 3.8476384000005055, 4.914118499998949, 5.8147704000002705, 6.581086700000014, 7.314621699999407]","[4, 2, 5, 4, 2, 5, 3, 7]","[4, 2, 5, 4, 2, 5, 0, 3]",False
210,21,"[3.548399600000266, 4.248554300000251, 4.798204700000497, 5.297774599999684, 6.01507169999968, 7.431789500000377, 8.182064500000706, 8.899597600000561]","[8, 0, 4, 4, 8, 5, 6, 7]","[8, 0, 4, 4, 8, 5, 6, 7]",True
210,22,"[1.6144671000001836, 2.3136231999997108, 2.964973699999973, 3.5317095999998855, 4.1479486000007455, 4.881194499999765, 5.848312800000713, 6.548185300000114, 7.4308254000006855]","[7, 4, 1, 8, 5, 1, 1, 5, 6]","[7, 1, 8, 8, 1, 5, 7, 6, 0]",False
210,23,"[1.5978818999992654, 2.0972954999997455, 2.5975464999992255, 3.0306423000001814, 4.1977796999999555, 4.8813728999994055, 5.564786200000526, 6.680757699999958, 7.531739300000481]","[8, 1, 3, 3, 5, 0, 0, 6, 0]","[8, 1, 3, 3, 5, 0, 6, 0, 6]",False
210,24,"[0.8801664999991772, 1.4975087000002532, 2.080314899998484, 3.3989020999997592, 4.147064299999329, 4.6977028000001155, 5.88072800000009, 6.532664999998815, 7.247659900000144]","[0, 6, 0, 5, 6, 0, 4, 3, 3]","[0, 6, 0, 5, 0, 4, 0, 3, 1]",False
215,1,"[1.297910100000081, 2.2974741000016365]","[5, 0]","[5, 0]",True
215,2,"[1.2975805000005494, 2.4978016000004573]","[0, 8]","[0, 8]",True
215,3,"[1.5313588999997592, 2.3641845999991347]","[4, 2]","[4, 2]",True
215,4,"[0.8643707000010181, 1.9644813000013528, 3.130797600000733]","[4, 5, 3]","[4, 5, 3]",True
215,5,"[1.3809882000005018, 5.96459060000052, 7.197000099999059]","[4, 2, 3]","[4, 4, 2]",False
215,6,"[1.3641256999999314, 2.3978518000003533, 3.4304726000009396]","[4, 8, 2]","[4, 8, 2]",True
215,7,"[1.097703299999921, 2.4147300999993604, 3.4305989000004047, 4.630446600000141]","[7, 3, 3, 2]","[7, 3, 3, 2]",True
215,8,"[0.9810081000014179, 2.014145400000416, 2.8974245999997947, 3.6145420000011654]","[3, 4, 4, 8]","[3, 4, 4, 8]",True
215,9,"[0.847072800001115, 1.5479200999998284, 2.4312107999994623, 3.0480607000008604]","[1, 6, 8, 5]","[1, 6, 8, 5]",True
215,10,"[0.9471345999991172, 1.6479870000002848, 2.730893500000093, 3.6309565999999904, 4.497324699999808]","[2, 5, 6, 5, 3]","[2, 5, 6, 5, 3]",True
215,11,"[1.0812968999998702, 1.8137174000003142, 2.6974448999990273, 3.4312563999992562, 4.097551199998634]","[6, 0, 2, 8, 4]","[6, 0, 2, 8, 4]",True
215,12,"[1.1477328000000853, 1.7822692999998253, 2.497676799999681, 4.464094500001011, 5.180619300001126]","[7, 5, 7, 1, 4]","[7, 5, 7, 1, 4]",True
215,13,"[0.9136851999992359, 1.7975860999995348, 2.4973565000000235, 4.946825099999842, 5.647779099999752, 6.21388719999959]","[1, 2, 2, 4, 0, 4]","[1, 2, 2, 0, 4, 4]",False
215,14,"[1.1138770999987173, 1.647262899999987, 2.630831299999045, 3.3647471999993286, 4.064809499999683, 4.698265499999252]","[2, 2, 3, 8, 7, 8]","[2, 2, 3, 8, 7, 8]",True
215,15,"[1.163930700000492, 1.5805993000012677, 2.2806908000002295, 3.1305712000012136, 3.664639399999942, 4.347488999999769]","[3, 3, 1, 3, 3, 6]","[3, 3, 1, 3, 3, 6]",True
215,16,"[1.0641865000015969, 2.14751410000099, 2.7144215000007534, 4.047662200000559, 4.797419300000911, 5.813815600000453, 8.76411730000109]","[6, 2, 2, 6, 4, 2, 3]","[6, 2, 2, 4, 2, 3, 4]",False
215,17,"[1.1308556000003591, 1.8142716999991535, 2.5312143999999535, 3.1982719999996334, 4.298148899999433, 5.247757699999056, 7.331775599999673]","[5, 6, 5, 7, 5, 3, 8]","[5, 6, 5, 7, 5, 8, 5]",False
215,18,"[2.1477199000000837, 2.9138990999999805, 3.7811421000005794, 6.230518500000471, 6.997597400000814, 8.064806399999725, 9.680876799999169]","[0, 6, 0, 0, 6, 4, 8]","[6, 0, 6, 0, 4, 8, 6]",False
216,1,"[0.8138827000002493, 1.6646947999997792]","[3, 8]","[3, 8]",True
216,2,"[0.6471864999994068, 1.014478699999927]","[3, 6]","[3, 6]",True
216,3,"[0.7974955999998201, 1.3310861999998451]","[5, 4]","[5, 4]",True
216,4,"[0.39749120000033145, 0.9313483000005363, 1.263414300000477]","[3, 7, 0]","[3, 7, 0]",True
216,5,"[0.3817164000001867, 0.9305720000002111, 1.265130499999941]","[3, 1, 8]","[3, 1, 8]",True
216,6,"[1.4643840999997337, 1.731674099999509, 2.2804761999996117]","[7, 1, 3]","[5, 7, 1]",False
216,7,"[0.7304760999995779, 1.1468619999996008, 1.714324999999917, 1.9474321999996391]","[2, 0, 6, 4]","[2, 0, 6, 4]",True
216,8,"[0.36404679999941436, 0.8306527999993705, 1.214450499999657, 1.348215099999834]","[3, 4, 6, 6]","[3, 4, 6, 6]",True
216,9,"[0.8972708999999668, 1.3307284000002255, 2.314414100000249, 2.6477303000001484]","[1, 4, 7, 6]","[1, 4, 7, 6]",True
216,10,"[0.8642034999993484, 1.4639159999996991, 2.014794599999732, 2.3648112999999285, 2.697175499999503]","[8, 5, 2, 8, 1]","[5, 2, 8, 8, 1]",False
216,11,"[0.813888699999552, 1.380335699999705, 1.6477598000001308, 2.247417800000221, 3.7484575999997105]","[2, 1, 6, 3, 2]","[2, 1, 6, 3, 6]",False
216,12,"[0.6310993999995844, 1.5471270999996705, 2.098240600000281, 2.39788309999949, 3.297051399999873]","[3, 2, 8, 4, 0]","[3, 2, 8, 4, 0]",True
216,13,"[0.7645628999998735, 1.6479792000000089, 2.1822431999999026, 2.4979357000001983, 2.8137008000003334, 3.2485114000000976]","[5, 8, 6, 0, 2, 2]","[5, 8, 4, 2, 0, 7]",False
216,14,"[1.281426100000317, 1.4479436000001442, 2.1812636000004204, 2.5976909000000887, 3.1480004000004556, 3.731572800000322]","[8, 8, 1, 7, 5, 2]","[8, 8, 1, 5, 7, 3]",False
216,15,"[0.5145228000001225, 1.130602799999906, 1.6650049999998373, 2.231283600000097, 2.381802699999753, 2.7812040999997407]","[6, 3, 0, 3, 3, 6]","[6, 3, 0, 3, 3, 6]",True
216,16,"[0.9146841000001587, 1.5302028999994945, 1.6968676999995296, 2.281203700000333, 2.681297799999811, 3.1981415999998717, 4.364871400000084]","[8, 0, 0, 6, 1, 8, 7]","[8, 0, 0, 6, 1, 7, 7]",False
216,17,"[0.7976518000004944, 1.2476242000002458, 1.3816880000003948, 1.714307899999767, 2.031500899999628, 2.4815803000001324, 4.197548299999653]","[5, 6, 6, 3, 5, 7, 7]","[5, 6, 6, 3, 7, 6, 2]",False
216,18,"[0.6975947999999335, 0.9477022999999463, 1.2979865999996036, 1.6803830999997444, 2.031326999999692, 2.39764439999999, 2.56422399999974]","[6, 4, 8, 4, 4, 3, 5]","[6, 4, 8, 1, 8, 4, 4]",False
218,1,"[5.831401499999629, 6.914192000000185]","[7, 0]","[7, 0]",True
218,2,"[1.597751100000096, 2.8811246000004758]","[3, 2]","[3, 2]",True
218,3,"[1.3982383999991725, 2.1807693999999174]","[7, 1]","[7, 1]",True
218,4,"[1.0644988999993075, 1.9641245999991952, 2.4810504999986733]","[4, 1, 1]","[4, 1, 1]",True
218,5,"[1.0478378999996494, 1.7309036999995442, 2.581749499999205]","[4, 2, 7]","[4, 2, 7]",True
218,6,"[1.264518300000418, 2.048296400000254, 2.914795000000595]","[3, 6, 2]","[3, 6, 2]",True
218,7,"[1.2148571999987325, 2.2309288999986165, 2.8814726999989944, 3.6812479000000167]","[8, 0, 7, 5]","[8, 0, 7, 5]",True
218,8,"[0.8480964000009408, 1.6312101000003167, 3.1147079000002122, 3.814638500000001]","[5, 1, 8, 3]","[5, 1, 8, 3]",True
218,9,"[0.8980701999989833, 1.9640842999997403, 2.7480651999994734, 3.1814459999986866]","[6, 0, 4, 4]","[6, 0, 4, 4]",True
218,10,"[1.4644501000002492, 3.0154208000003564, 3.8147611000003963, 4.914688000000751, 6.030853500000376]","[0, 8, 4, 3, 1]","[0, 8, 4, 3, 1]",True
218,11,"[0.9817275000004884, 1.7984262999998464, 2.698004199999559, 3.481720800000403, 4.231711599999471]","[7, 6, 2, 7, 8]","[7, 6, 2, 7, 8]",True
218,12,"[0.9480679999996937, 2.597651699999915, 3.431068399999276, 4.1805939999994735, 5.714618599999085]","[8, 0, 4, 0, 4]","[8, 0, 4, 0, 4]",True
218,13,"[0.8979835000009189, 1.6983042000010755, 3.1640564000008453, 4.064255900000717, 5.0142902999996295, 5.997697500000868]","[6, 7, 0, 2, 3, 2]","[6, 7, 0, 2, 3, 2]",True
218,14,"[0.7975698000009288, 1.4826119000008475, 2.031338799999503, 2.8150353000000905, 3.4312855000007403, 4.347731800000474]","[2, 7, 7, 8, 7, 2]","[2, 7, 7, 8, 7, 2]",True
218,15,"[1.4813006999993377, 2.3979227999989234, 3.2322414999998728, 3.8644655999996758, 4.498111400000198, 5.280983599999672]","[6, 4, 3, 3, 6, 3]","[6, 4, 3, 3, 6, 3]",True
218,16,"[1.431463699998858, 3.03075699999863, 4.2985209999988, 4.831720199999836, 5.864811800000098, 6.5810302999998385, 8.048000400000092]","[4, 0, 8, 8, 5, 7, 3]","[4, 0, 8, 8, 7, 3, 5]",False
218,17,"[1.4308165999991616, 2.197629500000403, 3.049039499999708, 3.8314924000005703, 4.6480977999999595, 5.38172399999894, 6.6645016000002215]","[0, 2, 3, 8, 7, 5, 7]","[0, 2, 3, 8, 5, 7, 5]",False
218,18,"[1.0313317000000097, 2.614708300001439, 3.247811200000797, 3.6974981000003027, 4.4480944000006275, 5.197578700001031, 6.097339600000851]","[7, 6, 3, 3, 7, 3, 1]","[7, 6, 3, 3, 7, 3, 1]",True
218,19,"[0.8143765999993775, 1.7974564999985887, 2.4147400000001653, 3.098323899999741, 3.7313702999999805, 4.631818599998951, 5.231249999998909, 6.197827399999369]","[2, 0, 4, 7, 3, 6, 3, 2]","[2, 0, 4, 7, 3, 6, 3, 2]",True
218,20,"[1.3646162999993976, 2.3807954999992944, 3.2644940999998653, 3.8976370000000315, 5.281599099998857, 6.34902669999974, 7.3810916999991605, 8.364908399998967]","[1, 0, 2, 2, 6, 0, 8, 6]","[1, 0, 2, 2, 6, 8, 1, 6]",False
218,21,"[1.0309880000004341, 1.8149195999994845, 2.41477759999907, 3.615027599998939, 4.4143285999998625, 5.180963900000279, 5.997502399999576, 7.5979401000004145]","[2, 6, 4, 3, 2, 7, 0, 1]","[2, 6, 7, 4, 3, 0, 1, 1]",False
218,22,"[1.347744299999249, 2.2810659000006126, 3.0316196999992826, 3.54819900000075, 4.097848899999008, 4.747836000000461, 5.214285800000653, 5.914647199999308, 6.530891899999915]","[0, 3, 7, 5, 5, 3, 3, 7, 5]","[0, 3, 7, 5, 5, 3, 3, 7, 0]",False
218,23,"[1.0148286999992706, 1.6981121999997413, 2.298158199999307, 3.615265599999475, 4.147619999999733, 5.164992899999561, 5.964182499999879, 6.7311756999988575, 7.531693899998572]","[7, 5, 6, 3, 3, 8, 0, 3, 8]","[7, 5, 6, 3, 3, 8, 0, 3, 8]",True
218,24,"[1.4147833000006358, 2.1980634999999893, 2.615060199999789, 3.4810161000004882, 4.264474300000074, 5.248286899999584, 5.914342100000795, 6.515057399999932, 7.214740699999311]","[7, 4, 4, 2, 7, 1, 2, 7, 3]","[7, 4, 4, 1, 2, 7, 3, 6, 5]",False
218,25,"[1.4316837000005762, 2.3809894999994867, 3.281247599999915, 4.363932800000839, 4.730550399999629, 5.6809334000008676, 7.030720900000233, 8.164619799999855, 8.980976500000907, 9.997433900000033]","[8, 1, 6, 6, 0, 0, 8, 2, 0, 1]","[8, 1, 6, 0, 0, 2, 1, 8, 2, 0]",False
218,26,"[1.5811534999993455, 2.4307658999987325, 3.231306899999254, 3.9817715999997745, 4.731312599999001, 5.647643199999948, 6.747808999998597, 7.331398599999375, 8.747762599999987, 9.648248699999385]","[2, 0, 6, 5, 7, 3, 5, 5, 3, 8]","[2, 0, 6, 5, 7, 3, 5, 5, 3, 8]",True
218,27,"[0.7974929999982123, 2.0642233999988093, 3.4809458999989147, 4.647608699999182, 5.797732199998791, 6.931101999998646, 8.648218599999382, 9.96533509999972, 10.797378199999002, 11.831027399999584]","[0, 1, 0, 3, 4, 6, 0, 7, 2, 0]","[0, 1, 3, 4, 2, 6, 7, 8, 2, 7]",False
218,28,"[0.9149615000005724, 1.865069499999663, 3.164480600000388, 3.9978597999997874, 4.8311200000007375, 5.564655700000003, 6.180885199999466, 7.131132900000011, 9.06455350000033, 9.814423600000737, 10.431247599999551]","[7, 8, 1, 4, 2, 0, 2, 1, 0, 0, 4]","[7, 8, 1, 4, 2, 0, 0, 2, 0, 5, 4]",False
218,29,"[3.298046500000055, 4.7146258000011585, 6.647908099999768, 7.664901300000565, 8.781291200000851, 9.897487300000648, 10.880542200000491, 12.93112629999996, 14.13134490000084, 15.463832400000683, 16.313927999999578]","[4, 3, 5, 0, 6, 1, 1, 6, 8, 4, 3]","[4, 3, 5, 0, 6, 1, 1, 3, 8, 1, 0]",False
218,30,"[1.6982579999985319, 5.364549799998713, 7.148847999998907, 8.298550599998634, 9.930672499998764, 11.697448399998393, 12.748027300000103, 13.680841999999757, 14.514079199998378, 15.697730500000034, 16.497419399998762]","[8, 4, 4, 2, 2, 0, 5, 0, 1, 4, 8]","[8, 4, 4, 2, 0, 1, 8, 0, 0, 5, 0]",False
219,1,"[2.781181500000457, 3.663856200000737]","[7, 1]","[7, 1]",True
219,2,"[1.114022699999623, 1.9642324999986158]","[3, 5]","[3, 5]",True
219,3,"[1.1969885999988037, 1.9641259999989416]","[2, 2]","[2, 2]",True
219,4,"[1.1141877999998542, 1.9472198999992543, 3.7486073999989458]","[0, 2, 6]","[0, 2, 6]",True
219,5,"[1.2143396000010398, 1.9812218000006396, 2.5969015000009676]","[5, 8, 0]","[5, 8, 0]",True
219,6,"[1.0308458999988943, 1.6142971999997826, 2.2475527999995393]","[6, 6, 5]","[6, 6, 5]",True
219,7,"[0.9476377999999386, 2.1812958999998955, 3.314459100000022, 4.464658000000782]","[7, 8, 6, 6]","[7, 8, 6, 6]",True
219,8,"[1.030973000000813, 1.8646769000006316, 2.6981768000005104, 3.4808229000009305]","[7, 6, 7, 2]","[7, 6, 7, 2]",True
219,9,"[1.0136860000002343, 2.280942100000175, 3.231135899999572, 3.981457500000033]","[0, 5, 6, 0]","[0, 5, 6, 0]",True
219,10,"[1.4140041999999085, 2.3637323000002652, 3.264512799998556, 4.147839699999167, 4.914329100000032]","[4, 1, 6, 5, 3]","[4, 1, 6, 5, 3]",True
219,11,"[1.0478954999998678, 3.2148811999995814, 4.431275900000401, 5.499194099998931, 6.414325600000666]","[8, 6, 6, 5, 2]","[8, 6, 6, 5, 2]",True
219,12,"[1.11513449999984, 2.0972335999995266, 3.0975216000006185, 3.9973821000003227, 4.931351699999141]","[3, 2, 4, 2, 5]","[3, 2, 4, 2, 5]",True
219,13,"[2.0311368000002403, 3.2314224999990984, 4.230735499999355, 5.848051199998736, 6.781117399999857, 10.49839509999947]","[7, 5, 8, 2, 5, 1]","[7, 8, 2, 5, 1, 1]",False
219,14,"[0.8472829999991518, 1.8812263999989227, 5.231797099999312, 6.097519199998715, 6.898305699998673, 7.647876899998664]","[3, 2, 1, 8, 6, 0]","[3, 2, 8, 1, 6, 0]",False
219,15,"[1.097643800001606, 2.381255600001168, 3.264335600000777, 4.198188800000935, 4.964436000000205, 5.665094500000123]","[8, 4, 6, 4, 5, 7]","[8, 6, 4, 6, 5, 7]",False
221,1,"[1.0143162999993365, 1.597333300000173]","[7, 2]","[7, 2]",True
221,2,"[0.8475243000011687, 1.3803680000000895]","[8, 3]","[8, 3]",True
221,3,"[0.9643323999989661, 1.7970640000003186]","[6, 3]","[6, 3]",True
221,4,"[0.6968426999992516, 1.2138765999989118, 1.6145402999991347]","[2, 4, 4]","[2, 4, 4]",True
221,5,"[1.447530999999799, 2.1803443000007974, 3.1144666000000143]","[6, 1, 5]","[6, 1, 5]",True
221,6,"[0.6815000000005966, 1.580170100000032, 2.246897799999715]","[7, 0, 1]","[7, 0, 1]",True
221,7,"[0.8980112000008376, 1.5134859000008873, 2.0800230000004376, 2.6642457000016293]","[8, 1, 0, 6]","[8, 1, 0, 6]",True
221,8,"[0.5802836999991996, 1.1978323999992426, 1.6976667999988422, 2.2470485999983794]","[3, 4, 6, 2]","[3, 4, 6, 2]",True
221,9,"[0.630459999998493, 1.0638838999984728, 1.5304910999984713, 2.0805333999996947]","[3, 2, 3, 4]","[3, 2, 3, 4]",True
221,10,"[0.7809548999994149, 1.5311197999999422, 2.080307999998695, 2.5803501999998844, 3.114767299999585]","[5, 6, 0, 1, 8]","[5, 6, 0, 1, 8]",True
221,11,"[0.7309067999995023, 1.4143211000009615, 1.9476451000009547, 2.4804597000002104, 3.0641507000000274]","[4, 8, 7, 0, 5]","[4, 8, 7, 0, 5]",True
221,12,"[0.5466314999994211, 1.080373700000564, 1.5971702999995614, 2.1308652000006987, 2.663471500000014]","[1, 2, 4, 3, 0]","[1, 2, 4, 3, 0]",True
221,13,"[0.7968660999995336, 1.4308931999985361, 2.331255899998723, 3.230826099999831, 3.781079899999895, 4.280384299998332]","[2, 4, 8, 4, 3, 0]","[2, 4, 8, 4, 3, 0]",True
221,14,"[0.6802320999995572, 1.3133095999983198, 1.831259399999908, 2.4810445999992226, 3.114775299998655, 4.164773199998308]","[1, 0, 5, 4, 7, 8]","[1, 0, 5, 4, 7, 8]",True
221,15,"[0.846917000000758, 1.3134114000004047, 1.9804678000000422, 2.447162500000559, 2.9820748999991338, 3.5654371000000538]","[1, 1, 3, 3, 7, 3]","[1, 1, 3, 3, 7, 3]",True
221,16,"[0.8135965999990731, 1.2136054999991757, 1.8302595000004658, 2.447092500000508, 2.913988500000414, 3.4311484999998356, 3.847634800000378]","[3, 3, 0, 2, 4, 7, 5]","[3, 3, 0, 2, 4, 7, 5]",True
221,17,"[1.1638892000009946, 1.9973771999993915, 2.831326199999239, 3.3643093000009685, 4.097781899999973, 5.831424699999843, 6.6328395000000455]","[5, 5, 3, 6, 4, 5, 6]","[3, 3, 6, 4, 5, 6, 5]",False
221,18,"[0.8638527000002796, 1.5144983000009233, 2.263925499999459, 3.1644236000011006, 3.8811036000006425, 4.998112100000071, 5.648204700000861]","[4, 8, 3, 4, 5, 4, 0]","[4, 8, 3, 4, 5, 4, 5]",False
221,19,"[0.963580899999215, 1.747688699999344, 2.363323199999286, 2.8808485999998084, 3.4478472999999212, 4.049439000000348, 4.597709399999076, 5.247887800000171]","[7, 3, 0, 5, 6, 5, 7, 6]","[3, 7, 0, 3, 5, 7, 5, 6]",False
221,20,"[0.8468937000016012, 1.3636225999998715, 2.080905200000416, 2.8137635000002774, 3.3304029000009905, 4.031201700001475, 4.598321400000714, 5.264287100000729]","[3, 3, 6, 2, 2, 7, 7, 4]","[3, 3, 6, 2, 2, 7, 7, 4]",True
221,21,"[0.5806455999991158, 1.0638038999986748, 1.7642208999986906, 2.413764299999457, 2.9646554999999353, 3.381399699999747, 3.930695499999274, 4.398258699999133]","[3, 6, 6, 0, 8, 8, 1, 6]","[3, 3, 6, 0, 8, 8, 1, 6]",False
221,22,"[0.8137982999996893, 1.3976323999995657, 1.9971237000008841, 2.7144893999993656, 3.4476016999997228, 3.898079200000211, 4.481060100000832, 5.081132499999512, 5.598578900000575]","[6, 2, 6, 8, 3, 2, 7, 5, 7]","[2, 6, 2, 8, 3, 7, 5, 5, 5]",False
221,23,"[1.9804766999986896, 2.5641224999999395, 3.1978347999993275, 5.164995199998884, 5.9145762999996805, 6.714425899999696, 9.415206899999248, 10.365414199999577, 11.265032499999506]","[2, 3, 2, 6, 2, 2, 6, 3, 2]","[2, 3, 2, 6, 2, 2, 3, 6, 2]",False
221,24,"[1.5968381999991834, 2.16382270000031, 2.647192999998879, 3.1471168999996735, 3.663477599999169, 4.297813099999985, 5.015975399999661, 5.430634099999224, 5.997714199998882]","[4, 4, 2, 2, 0, 4, 5, 6, 1]","[2, 4, 2, 2, 0, 5, 6, 1, 1]",False
223,1,"[1.481561499999998, 2.5812830999999505]","[7, 2]","[7, 2]",True
223,2,"[1.147581100000025, 1.9150260000000117]","[0, 7]","[0, 7]",True
223,3,"[1.0141849999999977, 1.8987230000000181]","[3, 8]","[3, 8]",True
223,4,"[0.9647547999999233, 2.0140632999999752, 2.631871599999954]","[7, 2, 6]","[7, 2, 6]",True
223,5,"[1.014088499999957, 1.8474588999999924, 2.531085599999983]","[1, 2, 5]","[1, 2, 5]",True
223,6,"[1.2151188000000275, 2.4472023000000718, 3.331772200000046]","[5, 0, 8]","[5, 0, 8]",True
223,7,"[1.0309242000000722, 1.897630700000036, 2.481671399999982, 2.948483200000055]","[0, 1, 8, 8]","[0, 1, 8, 8]",True
223,8,"[0.6638239999999769, 1.1308380000000398, 1.7314192000000048, 2.2475617000000057]","[0, 0, 1, 4]","[0, 0, 1, 4]",True
223,9,"[0.9311641000000463, 3.113754100000051, 3.647710400000051, 4.3982618]","[4, 7, 5, 7]","[4, 1, 5, 7]",False
223,10,"[0.6974172000000181, 1.064233100000024, 1.7650227000000314, 3.547833999999966, 4.1312110000000075]","[2, 2, 8, 4, 3]","[2, 2, 8, 4, 3]",True
223,11,"[3.130845000000022, 4.46488869999996, 5.331181499999957, 5.914813399999957, 6.631299899999931]","[2, 6, 1, 5, 6]","[2, 6, 1, 5, 6]",True
223,12,"[0.9312541000000465, 1.4645127999999659, 2.130818299999987, 2.8158011000000442, 3.2807259999999587]","[2, 4, 0, 7, 1]","[2, 4, 0, 7, 1]",True
223,13,"[1.0308780000000297, 2.047345600000085, 2.6140510000000177, 2.9804692999999816, 3.7806987000000163, 4.5473453000000745]","[4, 0, 1, 1, 0, 1]","[4, 0, 1, 1, 0, 1]",True
223,14,"[2.430859899999973, 3.4472442999999657, 4.08172060000004, 4.781561900000042, 5.414952299999982, 5.748688399999992]","[3, 1, 5, 4, 8, 8]","[3, 1, 4, 5, 8, 8]",False
223,15,"[0.7310583000000861, 1.397971400000074, 2.031512600000042, 2.5814128000000665, 2.9144320000000334, 3.7323787000000266]","[2, 6, 4, 6, 6, 7]","[2, 6, 4, 6, 6, 7]",True
223,16,"[2.3308836999999585, 3.264585699999998, 4.314383799999973, 5.080979200000002, 5.847694299999944, 6.54780889999995, 7.581501799999955]","[4, 8, 5, 0, 6, 0, 5]","[4, 8, 6, 0, 6, 5, 5]",False
223,17,"[1.3811680000000024, 1.7141712000000098, 2.34829179999997, 3.4977671999999984, 4.147637300000042, 5.031377899999939, 7.297934599999962]","[3, 3, 7, 3, 1, 8, 3]","[3, 3, 7, 3, 1, 5, 5]",False
223,18,"[0.9980161999999382, 2.7484233999999788, 3.164744100000007, 3.914246800000001, 4.68079130000001, 5.064118300000018, 6.2311257999999725]","[4, 6, 6, 1, 0, 0, 3]","[4, 6, 6, 1, 0, 0, 4]",False
225,1,"[1.0472452000012709, 1.913994400001684]","[4, 5]","[4, 5]",True
225,2,"[1.780761199999688, 2.6644356999986485]","[5, 4]","[5, 4]",True
225,3,"[0.8966372000013507, 1.2802530000008119]","[0, 0]","[0, 0]",True
225,4,"[0.9636731999999029, 1.7808601999986422, 2.7816702000000078]","[1, 6, 8]","[1, 6, 8]",True
225,5,"[0.7802855999998428, 1.447090499999831, 2.264302800000223]","[0, 1, 3]","[0, 1, 3]",True
225,6,"[0.9473203000015928, 1.714411500001006, 1.94691530000091]","[4, 0, 0]","[4, 0, 0]",True
225,7,"[0.4965186999997968, 1.2646351999992476, 2.231210899999496, 2.8478842999993503]","[0, 2, 8, 6]","[0, 2, 8, 6]",True
225,8,"[0.9142389999997249, 1.4143401000001177, 2.331055100001322, 2.9808124999999563]","[8, 4, 7, 3]","[8, 4, 7, 3]",True
225,9,"[0.7811380000002828, 1.5304818000004161, 2.214316499999768, 3.0306935000007797]","[7, 1, 6, 3]","[7, 1, 6, 3]",True
225,10,"[0.7643959999986691, 1.4476603999992221, 2.681631899999047, 3.4479420999996364, 4.164538799999718]","[8, 5, 4, 7, 6]","[8, 5, 4, 7, 6]",True
225,11,"[0.7473668000002363, 1.497335899999598, 2.047564599999532, 2.463884299999336, 3.0478079999993497]","[6, 5, 3, 3, 1]","[6, 5, 3, 3, 1]",True
225,12,"[0.7306495000011637, 1.6980387000003248, 2.281106500000533, 3.0303272000001016, 3.531726000001072]","[3, 6, 6, 0, 6]","[3, 6, 6, 0, 6]",True
225,13,"[0.8801194999996369, 1.4810961999992287, 2.0973040999997465, 2.830497299999479, 3.5646154999994906, 4.381390200000169]","[1, 5, 4, 2, 7, 6]","[1, 5, 4, 2, 7, 6]",True
225,14,"[0.6638614000003145, 1.5300963999998203, 2.247960700000476, 2.664065800001481, 3.5969123000013496, 4.213942899999893]","[3, 1, 8, 4, 0, 2]","[3, 1, 8, 4, 0, 2]",True
225,15,"[0.6309252999999444, 1.2645279999997001, 1.9813730000005307, 3.1980657999993127, 3.614690000000337, 4.364225100000112]","[7, 8, 7, 6, 6, 2]","[7, 8, 7, 6, 6, 2]",True
225,16,"[0.613593399999445, 1.68104940000012, 3.5476533000000927, 5.514817900000708, 6.465007400000104, 7.231133200000841, 9.181284300000698]","[4, 0, 2, 4, 4, 6, 2]","[0, 2, 4, 4, 6, 2, 0]",False
225,17,"[1.0137740999998641, 2.464322199999515, 4.214460499999404, 4.947272800000064, 23.367597899999964, 23.783119899999292, 24.451597299999776]","[3, 5, 1, 1, 4, 3, 5]","[3, 5, 5, 1, 4, 1, 3]",False
225,18,"[1.0977132999996684, 1.580780499998582, 2.380127899999934, 3.0315314999988914, 3.931083999999828, 4.580597899999702, 5.282439499998873]","[1, 4, 0, 7, 4, 1, 8]","[1, 4, 0, 7, 4, 1, 8]",True
225,19,"[1.1657998999999108, 1.9970634000001155, 2.697647799999686, 3.4138684999998077, 4.064232500000799, 4.7991971999999805, 5.248273600000175, 8.58126430000084]","[7, 2, 6, 2, 5, 3, 2, 5]","[7, 2, 6, 2, 3, 2, 5, 2]",False
225,20,"[0.9302122999997664, 2.264450000000579, 2.7973920000004, 3.9474872999999207, 7.748895200000334, 9.165411900001345, 10.09806700000081, 11.715807500000665]","[2, 7, 3, 2, 0, 3, 8, 5]","[2, 7, 3, 2, 5, 8, 2, 7]",False
225,21,"[1.080021300000226, 1.7977733999996417, 2.0310984999996435, 3.315498599999046, 4.398327299999437, 5.231104899999991, 5.8984622999996645, 8.598246300000028]","[0, 7, 7, 0, 5, 6, 3, 4]","[0, 7, 7, 5, 6, 3, 4, 4]",False
226,1,"[0.8813609000000042, 1.3974748000000545]","[4, 2]","[4, 2]",True
226,2,"[0.8980110999999624, 1.831478500000003]","[5, 3]","[5, 3]",True
226,3,"[0.9977635999999848, 2.3308514000000287]","[5, 3]","[5, 3]",True
226,4,"[2.364836500000024, 3.430890800000043, 3.6475492000000713]","[6, 4, 4]","[6, 4, 4]",True
226,5,"[0.7817192999999634, 1.2474227000000155, 2.3982264999999643]","[8, 0, 1]","[8, 0, 1]",True
226,6,"[0.8141544000000067, 1.5641114000000016, 2.1305247999999892]","[0, 3, 1]","[0, 3, 1]",True
226,7,"[1.3472537999999759, 1.6641911000000391, 2.4312605999999732, 3.0474335999999766]","[2, 2, 8, 1]","[2, 2, 8, 1]",True
226,8,"[0.6809714999999414, 1.29740019999997, 1.830809400000021, 2.3478099000000157]","[4, 1, 0, 3]","[4, 1, 0, 3]",True
226,9,"[0.7976251000000047, 1.397400300000072, 1.797557500000039, 2.7140218000000687]","[2, 1, 1, 3]","[2, 1, 1, 3]",True
226,10,"[1.7649135999999999, 3.3314652999999907, 4.1646222000000535, 4.764123900000072, 5.164556400000038]","[8, 6, 4, 3, 8]","[8, 6, 4, 3, 8]",True
226,11,"[1.1140324999998938, 1.7143855999999005, 2.2645864999999503, 2.897990199999981, 3.4975703999999723]","[0, 5, 7, 8, 2]","[0, 5, 7, 8, 2]",True
226,12,"[0.8304444999999987, 1.5479131000000734, 2.1315133000000515, 2.4648524000000407, 3.047048200000063]","[0, 6, 7, 7, 0]","[0, 6, 7, 7, 0]",True
226,13,"[1.080774099999985, 1.680612799999949, 2.1645992999999635, 2.8818911999999273, 3.415092399999935, 3.998077599999988]","[3, 0, 4, 6, 7, 5]","[3, 0, 4, 6, 7, 5]",True
226,14,"[1.0138967999999977, 1.6306805000000395, 2.0143814000000475, 3.1983195999999907, 4.014390800000001, 4.83087880000005]","[1, 2, 2, 8, 6, 4]","[1, 2, 2, 8, 6, 4]",True
226,15,"[2.3480961000000207, 4.514108999999962, 5.097548299999971, 5.781258500000035, 6.714104799999973, 7.16383159999998]","[6, 4, 1, 5, 1, 1]","[6, 1, 4, 5, 1, 1]",False
226,16,"[0.8310253999999304, 1.5146568999999772, 1.764708599999949, 2.5651452999999265, 2.8811873999999307, 3.6475454000000127, 4.231533199999944]","[2, 7, 7, 6, 6, 4, 7]","[2, 7, 7, 6, 6, 4, 7]",True
226,17,"[0.8316093000000819, 1.414346900000055, 2.0811499999999796, 2.580866300000025, 3.114893199999983, 3.781115100000079, 4.530744400000003]","[7, 5, 2, 4, 8, 6, 3]","[7, 5, 2, 4, 8, 6, 3]",True
226,18,"[3.1807872999999063, 4.780396199999927, 5.531109499999957, 6.498369699999898, 7.180648899999937, 7.798057599999993, 8.314728899999977]","[0, 0, 7, 3, 3, 7, 8]","[0, 0, 7, 3, 3, 8, 7]",False
226,19,"[0.9978955999999926, 1.1813752000000477, 1.9977124000000686, 2.4307632000000012, 3.3477768999999853, 3.531107200000065, 4.315223400000036, 4.747423099999992]","[6, 6, 1, 2, 6, 6, 1, 7]","[6, 6, 1, 2, 6, 6, 1, 0]",False
226,20,"[1.6643344999999954, 2.031285599999933, 3.430826799999977, 4.597356499999933, 5.247732199999973, 5.831648900000005, 6.813987699999984, 7.447755499999971]","[5, 5, 2, 0, 3, 6, 2, 4]","[5, 5, 2, 0, 3, 6, 0, 4]",False
226,21,"[0.7477832000000717, 1.2643745999999965, 1.697920599999975, 2.814201799999978, 3.3975050000000238, 5.364776200000051, 5.9479299000000765, 7.264153299999975]","[6, 5, 5, 1, 4, 5, 2, 7]","[6, 5, 5, 4, 1, 7, 5, 2]",False
229,1,"[1.1806062999994538, 1.764430899999752]","[4, 7]","[4, 7]",True
229,2,"[1.1143215000001874, 2.063991099999839]","[2, 1]","[2, 1]",True
229,3,"[0.7478750000000218, 1.2474197999999888]","[7, 5]","[7, 5]",True
229,4,"[0.6464765000000625, 1.3142169000002468, 2.414503699999841]","[0, 4, 6]","[0, 4, 6]",True
229,5,"[0.9309180000000197, 1.2644888999993782, 1.7812999999996464]","[6, 6, 5]","[6, 6, 5]",True
229,6,"[0.7469235999997181, 1.363900299999841, 2.0302472000003036]","[2, 4, 1]","[2, 4, 1]",True
229,7,"[0.5636082000000897, 1.564341900000727, 2.2813502000008157, 2.8475013000006584]","[1, 3, 8, 3]","[1, 3, 8, 3]",True
229,8,"[0.9640773000000991, 1.4312095000004774, 2.9140978000004907, 3.7643776000004436]","[0, 7, 4, 2]","[0, 7, 4, 2]",True
229,9,"[0.6645131000004767, 1.1805676000003587, 1.7135747000002084, 2.331188099999963]","[7, 3, 1, 6]","[7, 3, 1, 6]",True
229,10,"[0.9800737999994453, 1.6146584999996776, 2.3135451999996803, 2.881109099999776, 3.830872599999566]","[0, 8, 0, 6, 1]","[0, 8, 0, 6, 1]",True
229,11,"[0.7473977999998169, 1.1811668999998801, 1.6468640000002779, 2.213966100000107, 2.580659899999773]","[5, 7, 0, 3, 3]","[5, 7, 0, 3, 3]",True
229,12,"[0.9138985999998113, 1.146765399999822, 1.5977589999993143, 2.03178299999945, 2.414420899999641]","[0, 0, 5, 8, 6]","[0, 0, 5, 8, 6]",True
229,13,"[0.8973918000001504, 1.4472629000001689, 1.831622800000332, 2.2805632999998124, 2.4468134999997346, 3.181168699999944]","[3, 1, 5, 0, 0, 3]","[3, 1, 5, 0, 0, 3]",True
229,14,"[0.6807860999997501, 1.2810414999994464, 1.8312796999998682, 2.2971935999994457, 2.881646799999544, 3.3476622999996835]","[2, 7, 8, 2, 7, 1]","[2, 7, 8, 2, 7, 1]",True
229,15,"[0.44741639999938343, 0.8807023999997909, 1.447061500000018, 1.8979336999991574, 2.44840159999967, 2.9815167999995538]","[5, 4, 0, 2, 7, 8]","[5, 4, 0, 2, 7, 8]",True
229,16,"[0.897473699999864, 1.4978935999997702, 2.1312324999998964, 2.797289699999965, 3.331028200000219, 3.6981752000001507, 4.063915099999576]","[2, 7, 5, 1, 6, 2, 1]","[5, 7, 6, 2, 5, 8, 1]",False
229,17,"[0.6643145999996705, 1.197445200000402, 1.4309118000001035, 2.0141014999999243, 2.7639651999998023, 3.3814165000003413, 3.8142045000004146]","[5, 2, 2, 4, 2, 3, 4]","[5, 2, 2, 4, 2, 7, 3]",False
229,18,"[0.74876039999981, 1.431248400000186, 2.013564099999712, 2.4640516999998, 3.5475051000003077, 4.0308585000002495, 4.880924400000367]","[3, 6, 0, 3, 0, 3, 2]","[3, 6, 0, 3, 0, 3, 2]",True
229,19,"[0.5643067999999403, 1.3644344000003912, 1.8140731000003143, 2.46406879999995, 2.898224300000038, 3.4303628999996363, 3.847805899999912, 4.214750500000264]","[5, 7, 4, 2, 6, 0, 5, 7]","[5, 7, 4, 2, 6, 0, 5, 7]",True
229,20,"[0.6476786000002903, 1.2140490000001591, 1.9969082000006892, 2.7308711000005133, 3.4982927999999447, 4.047785499999918, 4.730871200000365, 5.680943000000298]","[1, 3, 0, 1, 4, 8, 0, 2]","[1, 3, 0, 4, 8, 1, 0, 2]",False
229,21,"[0.6974688000000242, 1.680284500000198, 2.364506899999469, 2.7136239999999816, 3.2808730999995532, 3.8480524999995396, 4.731702199999745, 5.881936400000086]","[3, 1, 6, 3, 4, 2, 4, 2]","[3, 1, 6, 0, 3, 4, 2, 4]",False
229,22,"[0.7820977000001221, 1.364130699999805, 1.7982042000003275, 2.4143778999996357, 2.747608200000286, 3.48071710000022, 5.331326399999853, 6.6153942999999344, 7.415140699999938]","[3, 4, 5, 6, 3, 2, 2, 4, 4]","[4, 5, 6, 3, 3, 2, 5, 6, 4]",False
229,23,"[0.7148554000004879, 1.2802263000003222, 1.798119700000825, 2.464548800000557, 3.097612200000185, 3.7151420000000144, 4.3143950000003315, 5.3817061000008835, 5.947456800000509]","[6, 1, 8, 7, 4, 8, 4, 0, 8]","[6, 1, 8, 7, 4, 8, 4, 8, 0]",False
229,24,"[0.6652225000007093, 1.3479040000011082, 1.8307475999999951, 2.4810544000001755, 3.164800900000955, 4.4808705999994345, 4.830870000000687, 5.28098559999944, 5.848932300000342]","[6, 4, 3, 6, 8, 2, 8, 8, 1]","[6, 8, 4, 3, 8, 2, 2, 1, 8]",False
232,1,"[1.2478115000003527, 1.9306099000004906]","[5, 3]","[5, 3]",True
232,2,"[1.1313060000002224, 1.9641105999999127]","[4, 2]","[4, 2]",True
232,3,"[1.1143898999998783, 1.8973486999993838]","[7, 1]","[7, 1]",True
232,4,"[0.7971913000001223, 1.51375040000039, 2.164326300000539]","[0, 2, 6]","[0, 2, 6]",True
232,5,"[0.7313662999995358, 1.4145598999994036, 1.9476452999997491]","[3, 8, 6]","[3, 8, 6]",True
232,6,"[0.7641763000001447, 1.4150386000001163, 2.581102300000566]","[5, 3, 4]","[5, 3, 4]",True
232,7,"[0.6972451999999976, 1.498091800000111, 2.014456599999903, 2.7803916000002573]","[3, 6, 6, 0]","[3, 6, 6, 0]",True
232,8,"[0.8303815999997823, 1.280126200000268, 1.8480761999999231, 2.5639350999999806]","[0, 0, 7, 3]","[0, 0, 7, 3]",True
232,9,"[0.9142383999997037, 1.5301775999996607, 1.8802224000000933, 2.781227299999955]","[6, 0, 0, 4]","[6, 0, 0, 4]",True
232,10,"[0.7981573999995817, 1.1979922000000442, 1.913983499999631, 2.4647074999993492, 3.1646700000001147]","[8, 8, 3, 8, 7]","[8, 8, 3, 8, 7]",True
232,11,"[1.363615799999934, 2.114536699999917, 2.914093200000025, 3.6982433000002857, 4.23154280000017]","[1, 2, 3, 5, 5]","[1, 2, 3, 5, 5]",True
232,12,"[1.3478025000003981, 2.2647360000000845, 2.6977704000000813, 3.2650743000003786, 3.7807250000005297]","[7, 6, 6, 8, 2]","[7, 6, 6, 8, 2]",True
232,13,"[0.9637072000004991, 1.6808440000004339, 2.1481266000000687, 2.6805759999997463, 3.414646100000027, 3.8147915999998077]","[2, 5, 6, 2, 5, 5]","[2, 5, 6, 2, 5, 5]",True
232,14,"[1.0970560999994632, 1.7976232000000891, 2.380566399999225, 3.147797399999945, 3.74739529999988, 4.398344799999904]","[1, 6, 2, 6, 2, 5]","[1, 6, 2, 6, 2, 5]",True
232,15,"[0.9477366999999504, 1.8472947999998723, 2.615094599999793, 3.2477011999999377, 3.9809209000004557, 4.714600500000415]","[5, 1, 8, 3, 2, 3]","[5, 1, 8, 3, 2, 3]",True
232,16,"[0.531520499999715, 1.347734599999967, 1.7310857000002215, 2.3647453000003225, 3.0812384999999267, 3.847700299999815, 4.448396699999648]","[8, 7, 7, 6, 7, 2, 6]","[8, 7, 7, 6, 7, 2, 8]",False
232,17,"[0.614804699999695, 1.3813054999991436, 2.0642968999991353, 2.74783109999953, 4.2149806999996144, 5.231730599999537, 5.6812589999999545]","[8, 7, 5, 0, 8, 3, 3]","[8, 7, 5, 0, 8, 3, 3]",True
232,18,"[3.464729299999817, 3.9640638999999283, 4.514928900000086, 4.980986100000337, 5.498822999999902, 6.131813400000283, 6.881801900000028]","[0, 2, 8, 3, 8, 7, 4]","[0, 2, 8, 3, 8, 7, 4]",True
232,19,"[1.7804465999997774, 2.4475673999995706, 2.98146639999959, 5.014850200000183, 5.481594500000028, 6.1649496, 7.331623699999909, 8.331560599999648]","[2, 5, 8, 7, 6, 7, 0, 5]","[2, 5, 8, 7, 7, 6, 5, 2]",False
232,20,"[0.7478209999999308, 1.2471452999998291, 1.7977958000001308, 2.5310323000003336, 3.8148562999995193, 4.547714299999825, 5.064555500000097, 5.648129399999561]","[8, 2, 8, 5, 8, 1, 2, 3]","[8, 2, 8, 5, 8, 1, 2, 3]",True
232,21,"[4.914212499999849, 5.530943400000069, 6.348073099999965, 6.915240499999527, 7.615197999999509, 8.631592599999749, 9.298263399999996, 10.066113199999563]","[1, 2, 5, 8, 7, 4, 3, 7]","[1, 2, 5, 8, 7, 4, 3, 7]",True
232,22,"[0.9469758999994156, 1.3137009000001854, 1.8971817000001465, 2.3974723000001177, 2.914188699999613, 3.698531799999728, 4.26380700000027, 4.947818999999981, 5.4145330000001195]","[2, 2, 0, 3, 4, 8, 4, 4, 0]","[2, 2, 0, 3, 4, 8, 0, 4, 4]",False
232,23,"[1.4492902999991202, 1.8983973999993395, 2.4143427999997584, 3.3647974999994403, 4.031410699999469, 4.647575699999834, 5.2652378999991925, 5.898564399999486, 6.531837099999393]","[6, 2, 1, 8, 7, 0, 3, 0, 6]","[6, 2, 1, 8, 7, 0, 3, 8, 8]",False
232,24,"[1.2310734000002412, 1.8479612000000998, 2.2983921000004557, 2.781593500000781, 3.447615900000528, 3.997557300000153, 4.531101600000511, 5.131473299999925, 5.614744700000301]","[7, 2, 8, 3, 4, 3, 4, 6, 2]","[7, 2, 8, 3, 4, 3, 4, 6, 2]",True
232,25,"[0.8474553999994896, 1.68040370000017, 2.2812457999998514, 2.964830500000062, 4.514490699999442, 6.415011799999775, 7.16517500000009, 8.115466899999774, 8.84784479999962, 9.49821400000019]","[4, 1, 7, 8, 2, 0, 4, 7, 5, 0]","[4, 1, 7, 8, 2, 6, 4, 8, 0, 2]",False
232,26,"[1.0477994999992006, 2.0477070999995703, 3.8647089999994932, 4.348336699999891, 4.898180499999398, 5.664409499999238, 6.514952499999708, 7.098769899999752, 8.015474699999686, 8.465063599999667]","[7, 5, 6, 0, 0, 3, 2, 7, 5, 4]","[7, 5, 6, 8, 3, 2, 5, 6, 8, 4]",False
232,27,"[1.6968470000001616, 2.514498900000035, 3.097273700000187, 3.665020600000389, 4.248511300000246, 5.3152297000006, 6.447992299999896, 7.380944999999883, 8.081903300000704, 8.581890700000258]","[0, 7, 2, 8, 7, 8, 1, 1, 3, 3]","[0, 7, 2, 8, 7, 8, 1, 0, 3, 3]",False
236,1,"[0.9979410000005373, 1.880690200000572]","[6, 3]","[6, 3]",True
236,2,"[1.0974031999994622, 1.9137771999994584]","[1, 1]","[1, 1]",True
236,3,"[0.9300922000002174, 1.7814995000007912]","[0, 3]","[0, 3]",True
236,4,"[0.9140474999994694, 1.7302500999994663, 2.2636640000000625]","[4, 0, 0]","[4, 0, 0]",True
236,5,"[0.9159572999997181, 1.730942000000141, 2.482037599999785]","[8, 5, 8]","[8, 5, 8]",True
236,6,"[0.8134202999999616, 1.5806716999995842, 2.1813992999996117]","[0, 1, 6]","[0, 1, 6]",True
236,7,"[0.6800949999997101, 1.246868899999754, 1.980540900000051, 2.831286800000271]","[0, 0, 2, 6]","[0, 0, 2, 6]",True
236,8,"[0.8471411000000444, 1.2980604999993375, 1.9645950999993147, 2.581379100000049]","[1, 1, 4, 6]","[1, 1, 4, 6]",True
236,9,"[0.6983226000002105, 1.2976306000000477, 1.9473138000003019, 2.7316351999998005]","[7, 6, 3, 7]","[7, 6, 3, 7]",True
236,10,"[0.7639805999997407, 1.347763699999632, 1.8306306000004042, 2.5474892000002, 3.197911799999929]","[4, 7, 1, 0, 1]","[4, 7, 1, 0, 1]",True
236,11,"[0.9978732999998101, 1.497224599999754, 2.3478635000001304, 3.781198499999846, 4.497733000000153]","[8, 0, 7, 5, 3]","[8, 0, 7, 5, 3]",True
236,12,"[0.8472654999995939, 1.4134829000004174, 1.9480062000002363, 2.5471558999997796, 3.231599200000346]","[3, 0, 8, 1, 2]","[3, 0, 8, 1, 2]",True
236,13,"[0.6809266999998727, 1.164153200000328, 1.5819938000004186, 2.080328400000326, 2.549170000000231, 3.2476102000000537]","[1, 4, 6, 0, 3, 1]","[1, 4, 6, 0, 3, 1]",True
236,14,"[0.5640995000003386, 1.3646431999995912, 2.1471056000000317, 2.5987324999996417, 3.1976549000000887, 3.881715399999848]","[6, 7, 2, 2, 5, 7]","[6, 7, 2, 2, 5, 7]",True
236,15,"[0.880542300000343, 1.2806317000004128, 1.798157700000047, 2.2814644000000044, 2.747550600000068, 3.3483839000000444]","[2, 3, 6, 4, 4, 1]","[2, 3, 6, 4, 4, 1]",True
236,16,"[0.7803368000004411, 1.347563700000137, 1.9642771000007997, 2.6471666000006735, 3.26442120000047, 4.364812300000267, 5.047878200000014]","[2, 5, 3, 1, 5, 4, 5]","[2, 5, 3, 1, 5, 4, 4]",False
236,17,"[0.7972955999994156, 1.113970999999765, 1.714709199999561, 2.2817520999997214, 2.8812732999995205, 4.1815067999996245, 5.048204699999587]","[3, 3, 5, 4, 5, 3, 6]","[3, 3, 4, 5, 3, 6, 6]",False
236,18,"[0.6975861000000805, 1.4149012999996557, 1.8147769999995944, 2.497372499999983, 3.5318624000001364, 4.11414269999932, 4.797381699999278]","[1, 8, 8, 2, 7, 1, 0]","[1, 8, 8, 2, 7, 1, 0]",True
236,19,"[0.8154771999998047, 1.6312143000004653, 2.4639936000003217, 3.998617600000216, 6.64861110000038, 7.481954699999733, 7.8490283000001, 8.533197599999767]","[8, 7, 2, 4, 4, 5, 4, 8]","[8, 7, 2, 4, 5, 4, 4, 8]",False
236,20,"[0.9974644999992961, 1.7818342999999004, 2.4307819999994535, 3.9483337000001484, 4.597493799999938, 5.448009400000046, 6.01490449999983, 6.631974299999456]","[4, 0, 4, 8, 1, 2, 6, 6]","[4, 8, 0, 8, 1, 2, 5, 6]",False
236,21,"[0.9475456000000122, 1.8478065999997852, 3.0811475999998947, 3.6808183000002828, 4.280954599999859, 4.797245800000383, 5.581380100000388, 6.44878990000052]","[3, 1, 5, 2, 0, 0, 4, 8]","[3, 1, 5, 2, 0, 0, 4, 5]",False
237,1,"[1.0979937000000746, 1.6312110000000075]","[7, 6]","[7, 6]",True
237,2,"[1.3811745000000428, 1.7980605000000196]","[2, 2]","[2, 2]",True
237,3,"[0.9976346000000831, 1.4146562000000813]","[4, 7]","[4, 7]",True
237,4,"[0.9644108999999617, 1.6311193999999887, 2.463969899999938]","[4, 3, 0]","[4, 3, 0]",True
237,5,"[1.2645729000000756, 2.0819349000000784, 2.6651249000000234]","[4, 8, 1]","[4, 8, 1]",True
237,6,"[1.0643617000000631, 1.5139341000000286, 2.031715599999984]","[5, 0, 8]","[5, 0, 8]",True
237,7,"[0.6648424000001114, 1.1477526000001035, 1.8140339000000267, 2.4477556000000504]","[5, 1, 0, 1]","[5, 1, 0, 1]",True
237,8,"[0.7979078999999274, 1.4813740999999254, 2.097836799999982, 2.531481099999951]","[4, 8, 3, 4]","[4, 8, 3, 4]",True
237,9,"[1.5148983999999928, 2.047446100000002, 2.464502799999991, 3.3645371999999725]","[8, 2, 0, 3]","[8, 2, 0, 3]",True
237,10,"[0.9146391000000449, 1.5979747000000089, 2.4140257999999903, 2.847780899999975, 3.880925100000013]","[0, 7, 1, 5, 2]","[0, 7, 1, 5, 2]",True
237,11,"[9.530368400000043, 10.380570499999976, 11.614464099999964, 12.33088710000004, 12.964489200000003]","[4, 2, 3, 1, 8]","[0, 2, 3, 1, 8]",False
237,12,"[3.297929100000033, 3.897950900000069, 5.064698799999974, 6.98136599999998, 7.530840300000023]","[7, 8, 5, 0, 4]","[7, 8, 5, 4, 0]",False
237,13,"[0.7644808000000012, 1.664012200000002, 2.014334100000042, 6.197425199999998, 6.881510700000035, 15.315345500000035]","[5, 2, 2, 1, 7, 5]","[5, 2, 2, 1, 7, 7]",False
237,14,"[1.230895900000064, 1.7144223999999895, 2.380873500000007, 3.080857900000069, 3.980874100000051, 6.397433800000044]","[0, 1, 2, 0, 3, 0]","[0, 2, 1, 0, 3, 0]",False
237,15,"[1.430826799999977, 1.830549000000019, 2.53157879999992, 2.897988699999928, 3.614967399999955, 5.798499499999934]","[0, 0, 6, 6, 7, 6]","[0, 0, 6, 6, 7, 6]",True
237,16,"[1.4646456000000398, 1.9976340000000619, 2.8648245000000543, 3.931145700000002, 6.147539000000052, 7.13129170000002, 7.9982672000001]","[5, 2, 8, 1, 3, 8, 5]","[8, 2, 5, 3, 1, 5, 8]",False
237,17,"[0.9975374000000556, 7.88109350000002, 8.331335100000047, 9.14774250000005, 9.91418299999998, 10.698358299999995, 13.314694700000018]","[4, 6, 3, 0, 6, 6, 8]","[0, 6, 6, 3, 4, 8, 6]",False
237,18,"[2.0804902999999513, 5.164577799999961, 8.930880799999954, 11.180696000000012, 12.76427990000002, 16.03083749999996, 17.39837669999997]","[0, 1, 7, 1, 4, 5, 1]","[0, 7, 1, 3, 5, 4, 6]",False
238,1,"[1.0312348999996175, 2.0475394999994023]","[3, 5]","[3, 5]",True
238,2,"[1.1647407999998904, 2.164617200000066]","[2, 7]","[2, 7]",True
238,3,"[1.0806771000006847, 1.9812311000005138]","[4, 5]","[4, 5]",True
238,4,"[0.7971556000002238, 1.3139842999999019, 2.0312291000000187]","[3, 4, 7]","[3, 4, 7]",True
238,5,"[0.8141741999997976, 1.3476510000000417, 1.9638574000000517]","[4, 3, 1]","[4, 3, 1]",True
238,6,"[0.8304517999995369, 1.2471285000001444, 2.197812800000065]","[2, 2, 6]","[2, 2, 6]",True
238,7,"[0.5805907000003572, 1.080607200000486, 1.5811710999996649, 2.7810472999999547]","[4, 3, 7, 2]","[4, 3, 7, 2]",True
238,8,"[0.6808640999997806, 1.1473629000001893, 1.7804015000001527, 2.715001399999892]","[5, 2, 1, 3]","[5, 2, 1, 3]",True
238,9,"[0.5812998999999763, 1.1302992999999333, 1.9142904000000271, 2.363643800000318]","[8, 1, 3, 0]","[8, 1, 3, 0]",True
238,10,"[0.5640605999997206, 0.9469920000001366, 2.4650683999998364, 3.3476419999997233, 3.8814202000003206]","[5, 2, 6, 4, 7]","[5, 2, 6, 4, 7]",True
238,11,"[0.7634645999996792, 1.3149428999995507, 1.965100700000221, 2.231178400000317, 2.9979997000000367]","[0, 4, 5, 5, 7]","[0, 4, 5, 5, 7]",True
238,12,"[0.9312625000002299, 1.4983370999998442, 2.113620600000104, 2.330302400000619, 2.98077640000065]","[7, 1, 0, 0, 3]","[7, 1, 0, 0, 3]",True
238,13,"[0.5470709000001079, 0.9978666999995767, 1.6985453999996025, 2.2653252999998585, 2.5813544000002366, 3.1971512000000075]","[0, 6, 3, 7, 7, 1]","[0, 6, 3, 7, 7, 1]",True
238,14,"[0.7310244999998758, 1.0309249000001728, 1.730754799999886, 1.9476752000000488, 2.7979820000000473, 3.647643600000265]","[5, 5, 4, 4, 5, 4]","[5, 5, 4, 4, 5, 4]",True
238,15,"[0.9155481999996482, 1.5636508999996295, 2.3145957999995517, 2.964518799999496, 3.6648660999999265, 4.39752099999987]","[6, 1, 5, 4, 6, 2]","[6, 1, 5, 4, 6, 2]",True
238,16,"[0.6976771999998164, 1.330978199999663, 1.9476966000001994, 2.5476130999995803, 3.2481358999993972, 3.830966699999408, 4.514520199999424]","[7, 3, 6, 2, 8, 1, 3]","[7, 3, 6, 2, 8, 1, 3]",True
238,17,"[0.7147712000005413, 1.3807350000006409, 1.8306204000000434, 2.214697800000067, 2.597298900000169, 3.1306318000006286, 3.5978877000006833]","[5, 4, 3, 8, 0, 2, 6]","[5, 4, 3, 8, 0, 2, 6]",True
238,18,"[0.6320026000003054, 1.2807781000001341, 4.048669200000404, 4.615044300000591, 5.382418199999847, 6.148353999999927, 6.765273200000593]","[3, 8, 3, 3, 7, 6, 5]","[8, 3, 8, 8, 7, 5, 6]",False
238,19,"[0.9479503000002296, 1.8475818999995681, 2.6140966000002663, 3.497295000000122, 4.215905099999873, 5.147963899999922, 5.7817041999996945, 6.631579699999747]","[3, 6, 3, 1, 6, 4, 5, 8]","[6, 3, 3, 1, 6, 4, 7, 5]",False
238,20,"[1.2140412999997352, 1.8980014999997366, 2.5986777999996775, 4.948115399999551, 6.1810568000000785, 6.798208799999884, 7.265515600000072, 7.931371099999524]","[4, 6, 5, 6, 1, 0, 6, 1]","[4, 6, 5, 6, 2, 0, 7, 1]",False
238,21,"[0.646710100000746, 1.4140637000000424, 1.681001500000093, 2.331067900000562, 3.0654442000004565, 3.530708300000697, 3.9809339000003092, 4.580662900000789]","[0, 4, 4, 6, 8, 2, 1, 0]","[0, 4, 4, 6, 8, 2, 1, 0]",True
238,22,"[0.6968340999992506, 1.2811948999997185, 1.8987184999996316, 4.2638694999996005, 5.43154979999963, 6.264970399999584, 7.514944999999898, 9.282547199999499, 10.449531499999466]","[8, 3, 0, 6, 6, 5, 3, 7, 3]","[0, 8, 3, 0, 6, 6, 2, 7, 8]",False
238,23,"[1.3806425000002491, 2.063810200000262, 2.2475610999999844, 2.8144185000001016, 3.331271099999867, 3.747705499999938, 4.180843299999651, 4.831259599999612, 5.298716799999966]","[1, 2, 2, 6, 0, 4, 7, 5, 8]","[1, 2, 2, 6, 7, 4, 0, 5, 8]",False
238,24,"[0.9976292000001195, 5.831252500000119, 7.1476252000002205, 8.131665900000371, 8.682476900000438, 9.5157521000001, 10.365560899999764, 10.814775099999679, 11.282599199999822]","[3, 6, 5, 0, 4, 8, 8, 1, 4]","[6, 3, 0, 4, 7, 6, 5, 0, 8]",False
243,1,"[1.5811402999997881, 2.7817865999995774]","[1, 6]","[1, 6]",True
243,2,"[1.548345899999731, 2.5809588000001895]","[5, 4]","[5, 4]",True
243,3,"[1.4974068000001353, 2.3483595999996396]","[4, 8]","[4, 8]",True
243,4,"[1.365648500000134, 2.3314995000000636, 3.2640707999998995]","[5, 6, 2]","[5, 6, 2]",True
243,5,"[1.8973858999997901, 3.9641646000000037, 4.947493499999837]","[1, 2, 1]","[1, 2, 1]",True
243,6,"[1.6312935000005382, 2.4979683999999907, 2.9989408000001276]","[6, 7, 7]","[6, 7, 7]",True
243,7,"[0.7648122999999032, 1.4807283999998617, 2.131426800000554, 2.6980297000000064]","[8, 4, 7, 7]","[8, 4, 7, 7]",True
243,8,"[1.7468675000000076, 2.7814272000005076, 3.5142043000005287, 4.364948200000072]","[0, 6, 2, 6]","[0, 6, 2, 6]",True
243,9,"[0.9812640000000101, 1.6813690999997561, 2.8144553000001906, 3.831110900000567]","[8, 8, 5, 4]","[8, 8, 5, 4]",True
243,10,"[0.6807144999993398, 1.4472968000000037, 2.1146214999998847, 2.8979013999996823, 3.6149055999994744]","[4, 3, 7, 6, 8]","[4, 3, 7, 6, 8]",True
243,11,"[1.2972967000005156, 1.8645360000000437, 2.3815144999998665, 3.131245300000046, 4.281587600000421]","[3, 7, 7, 6, 8]","[3, 7, 7, 6, 8]",True
243,12,"[1.1307341000001543, 2.014158999999381, 2.8810286999996606, 3.6810146999996505, 4.315172799999345]","[5, 4, 5, 4, 8]","[5, 4, 5, 4, 8]",True
243,13,"[1.2970557999997254, 2.047016999999869, 2.648264599999493, 3.414375199999995, 4.047164699999485, 4.831528999999136]","[2, 1, 7, 5, 0, 4]","[2, 1, 7, 5, 0, 4]",True
243,14,"[1.963627500000257, 2.9309315000000424, 3.5494206000003032, 4.080801099999917, 4.931462000000465, 5.598240199999964]","[0, 4, 8, 2, 6, 3]","[0, 4, 8, 2, 6, 3]",True
243,15,"[3.7480374000006123, 4.298366900000474, 5.031264300000657, 5.748880000000099, 6.314575300000797, 6.915091200000461]","[3, 4, 2, 6, 3, 6]","[4, 6, 2, 6, 3, 6]",False
243,16,"[1.597020999999586, 3.932019699999728, 4.664898099999846, 5.698232099999586, 6.248163000000204, 6.965094899999713, 9.031929300000229]","[1, 8, 7, 6, 3, 6, 3]","[1, 8, 7, 6, 3, 6, 3]",True
243,17,"[1.048077899999953, 1.6142095999994126, 2.6148519999997006, 3.264800999999352, 3.781253999999535, 4.448492299999998, 4.814708500000052]","[7, 5, 6, 8, 3, 7, 3]","[7, 5, 6, 8, 3, 8, 3]",False
243,18,"[0.848002799999449, 1.7804670999994414, 2.3474546999996164, 2.9978372999994463, 3.2977577999999994, 4.33200399999987, 5.014903899999808]","[7, 0, 1, 5, 5, 8, 7]","[7, 0, 1, 5, 5, 8, 7]",True
243,19,"[1.1140481000002183, 1.7317596000002595, 2.4141497999999046, 3.081489099999999, 4.1485035000005155, 4.7809275999998135, 5.331766000000243, 5.814881899999818]","[4, 7, 1, 5, 0, 7, 0, 3]","[4, 7, 1, 5, 7, 0, 7, 3]",False
243,20,"[3.3471644999999626, 4.847889799999393, 5.347815299999638, 6.082512500000121, 6.315229400000135, 6.831355199999962, 7.298372799999925, 7.782039199999417]","[0, 3, 2, 4, 3, 3, 7, 7]","[0, 4, 2, 7, 7, 3, 3, 7]",False
243,21,"[0.7138219999997091, 1.131345599999804, 1.6643141999993531, 2.497040299999753, 3.26477259999956, 3.864046199999393, 4.547375299999658, 4.880755399999543]","[3, 7, 6, 1, 5, 2, 1, 1]","[3, 7, 6, 1, 5, 2, 1, 1]",True
243,22,"[0.6643377000000328, 1.1320275000007314, 1.7814309000004869, 2.3141269000007014, 3.1637648000005356, 3.681600000000799, 4.147293300000456, 4.414115600000514, 4.847597400000268]","[3, 8, 3, 0, 5, 0, 1, 7, 0]","[3, 8, 3, 3, 0, 5, 0, 0, 1]",False
243,23,"[1.2143008000002737, 1.6813622999998188, 1.9328683000003366, 2.3805576000004294, 4.13150829999995, 4.84832920000008, 5.731103900000562, 6.398070899999766, 9.3661546000003]","[6, 8, 8, 2, 2, 0, 3, 6, 1]","[6, 8, 8, 2, 0, 6, 3, 1, 3]",False
243,24,"[1.3807665999993333, 2.4473277999995844, 2.982108000000153, 3.5647947999996177, 4.081235900000138, 4.5982852999995885, 5.350121200000103, 5.681959199999255, 6.8649116999995385]","[4, 2, 7, 6, 4, 1, 7, 2, 1]","[4, 2, 7, 6, 4, 1, 7, 7, 2]",False
244,1,"[1.8479310000000169, 3.181045700000027]","[7, 4]","[7, 4]",True
244,2,"[1.1137611000000334, 1.714660600000002]","[0, 5]","[0, 5]",True
244,3,"[0.9643086999999468, 1.89771989999997]","[4, 6]","[4, 6]",True
244,4,"[0.9141574000000219, 1.6968547000000171, 2.4646069000000352]","[5, 0, 4]","[5, 0, 4]",True
244,5,"[0.8805247000000236, 1.6647643999999673, 2.6653142000000116]","[1, 8, 7]","[1, 8, 7]",True
244,6,"[1.8310915000000705, 2.498353400000042, 3.0648386999999957]","[5, 8, 4]","[5, 8, 4]",True
244,7,"[0.9478493000000299, 1.447950999999989, 2.2641263000000436, 3.031662200000028]","[7, 7, 3, 7]","[7, 7, 3, 7]",True
244,8,"[0.6645043999999416, 1.1974674999999024, 2.097674999999981, 2.6824625999998943]","[8, 3, 5, 8]","[8, 3, 5, 8]",True
244,9,"[0.8466986999999335, 1.3816128999999364, 1.9142745999999988, 2.7478741999999556]","[0, 8, 4, 7]","[0, 8, 4, 7]",True
244,10,"[0.7636978000000454, 1.5975391000000627, 2.0148639999999887, 2.5636822000000166, 3.3308723999999756]","[2, 5, 6, 0, 2]","[2, 5, 6, 0, 2]",True
244,11,"[0.7308824000000413, 1.314497000000074, 1.8136338000000478, 2.4805617000000666, 3.1145413000000417]","[5, 5, 0, 1, 5]","[5, 5, 0, 1, 5]",True
244,12,"[0.9302447999999686, 1.58063889999994, 2.39807959999996, 3.2477779999999257, 3.847377100000017]","[1, 2, 8, 5, 0]","[1, 2, 8, 5, 0]",True
244,13,"[0.9643747000000076, 1.880792499999984, 2.2469274999999698, 2.7643977000000177, 3.4643545999999787, 4.148060399999963]","[7, 4, 0, 4, 2, 5]","[7, 4, 0, 4, 2, 5]",True
244,14,"[1.0315208999999186, 1.7146505999999135, 2.4478184999999257, 3.147511599999916, 3.6478376000000026, 11.215906299999915]","[6, 7, 6, 3, 5, 5]","[6, 7, 6, 3, 5, 8]",False
244,15,"[1.6633580999999822, 1.8966023999998924, 2.481164299999932, 2.831588399999987, 3.514206799999897, 4.015731599999981]","[0, 0, 8, 6, 3, 5]","[0, 0, 8, 6, 3, 5]",True
244,16,"[0.8803550000000087, 2.46412399999997, 3.8981754000000137, 6.08188819999998, 6.74800909999999, 7.4815710999999965, 10.449135299999966]","[0, 2, 4, 2, 8, 2, 4]","[0, 2, 4, 8, 2, 4, 8]",False
244,17,"[2.1813058000000183, 3.5140433000000257, 4.280921700000022, 4.8647799000000305, 5.232031900000038, 5.681584100000009, 7.9317530000000716]","[3, 6, 2, 0, 4, 8, 3]","[6, 2, 0, 4, 8, 3, 3]",False
244,18,"[1.4812524999999823, 2.1139267999999447, 2.3972603999999365, 3.3810214999999744, 3.6310548000000153, 4.280864899999983, 4.881348499999945]","[8, 2, 2, 4, 4, 2, 5]","[8, 2, 2, 4, 4, 2, 5]",True
244,19,"[1.9646864999999707, 2.4472937000000456, 3.1977920000000495, 4.098206600000026, 4.8317425000000185, 5.233030099999951, 5.714249500000051, 7.097775899999988]","[4, 1, 8, 1, 4, 5, 6, 1]","[8, 1, 4, 1, 5, 6, 1, 1]",False
244,20,"[3.148227800000086, 4.247987200000011, 5.815238200000067, 6.181597500000066, 6.697900900000036, 7.298333100000036, 8.03194880000001, 9.332267900000033]","[7, 0, 6, 5, 4, 2, 0, 8]","[7, 4, 6, 5, 0, 2, 4, 7]",False
244,21,"[1.7973382999999785, 2.447699899999975, 2.8303538000000117, 3.365020800000025, 3.8978488999999854, 5.797786599999995, 6.265529199999946, 6.714381199999934]","[3, 5, 0, 4, 3, 2, 8, 1]","[3, 5, 0, 4, 3, 2, 8, 1]",True
244,22,"[0.9808067999999821, 1.7641512999999804, 1.8976964000000862, 4.114000600000054, 4.581657000000064, 6.03137920000006, 6.71477230000005, 7.115458200000035, 8.74859140000001]","[5, 4, 4, 0, 8, 4, 1, 6, 1]","[5, 4, 4, 0, 8, 4, 1, 6, 6]",False
244,23,"[0.8642768999999362, 1.6642852999999604, 2.180855099999917, 2.8144708999999466, 2.9640039999999317, 8.831001699999888, 10.1992919999999, 10.881938699999978, 11.316002199999957]","[7, 4, 5, 1, 1, 0, 5, 7, 8]","[7, 4, 5, 1, 1, 0, 7, 4, 8]",False
244,24,"[2.56445599999995, 4.397424499999943, 5.697651399999927, 5.847345599999926, 6.582132599999909, 7.281236400000012, 8.098139099999912, 9.015781399999923, 10.748504599999933]","[0, 6, 2, 0, 0, 7, 1, 2, 3]","[6, 1, 0, 0, 7, 2, 3, 3, 3]",False
245,1,"[1.6805433000000107, 2.3476565999999934]","[1, 2]","[1, 2]",True
245,2,"[1.8643294999999966, 2.5980609000000072]","[1, 3]","[1, 3]",True
245,3,"[1.164683000000025, 2.0807379999999966]","[7, 2]","[7, 2]",True
245,4,"[0.9811333999999761, 1.8315112999999883, 2.5315758999999503]","[6, 8, 8]","[6, 8, 8]",True
245,5,"[1.1976003000000333, 1.9643085000000156, 2.7477228000000196]","[2, 5, 1]","[2, 5, 1]",True
245,6,"[0.9149221000000125, 1.6973281000000497, 2.230676600000038]","[8, 0, 2]","[8, 0, 2]",True
245,7,"[1.0979233999999565, 1.8639480999999591, 2.6651584999999614, 3.430933799999991]","[5, 1, 0, 4]","[5, 1, 0, 4]",True
245,8,"[1.2306769000000486, 1.897157600000014, 2.7313871000000063, 3.631529300000011]","[2, 0, 7, 8]","[2, 0, 7, 8]",True
245,9,"[1.448265499999934, 2.247148100000004, 2.864090199999964, 3.44728049999992]","[8, 0, 2, 0]","[8, 0, 2, 0]",True
245,10,"[1.5476807000000008, 2.1638724000000593, 2.714798000000087, 3.447624000000019, 4.048153100000036]","[2, 0, 3, 4, 6]","[2, 0, 3, 4, 6]",True
245,11,"[1.0976452999999537, 2.0318946999999525, 2.6806786999999304, 3.4811227000000144, 4.014336500000013]","[2, 6, 2, 6, 5]","[2, 6, 2, 6, 5]",True
245,12,"[0.9977398999999423, 1.6475641999999198, 2.4810964999999214, 3.0813942999999426, 3.847492999999986]","[5, 4, 3, 6, 1]","[5, 4, 3, 6, 1]",True
245,13,"[1.1477434999999332, 1.88087280000002, 2.6816257000000405, 3.8641715999999633, 4.414053599999988, 4.881151599999953]","[3, 1, 8, 1, 3, 5]","[3, 1, 8, 1, 3, 5]",True
245,14,"[1.0643016000000216, 2.2321922999999515, 3.0642562000000453, 3.6976690999999846, 4.181028999999967, 4.797748899999988]","[4, 7, 4, 5, 5, 4]","[4, 7, 4, 5, 5, 4]",True
245,15,"[2.280578799999944, 2.8313296000000037, 3.548124400000006, 4.19737449999991, 4.797864000000004, 5.297367099999974]","[1, 5, 7, 1, 4, 0]","[1, 5, 7, 1, 4, 0]",True
245,16,"[0.780541400000061, 1.3814926000000014, 2.0644181999999773, 2.7980320000000347, 3.397475200000031, 4.031011700000022, 4.697671700000001]","[0, 5, 1, 6, 3, 4, 4]","[0, 5, 1, 6, 3, 4, 4]",True
245,17,"[0.998036500000012, 1.6314151000000265, 2.1978033000000323, 2.6807181000000355, 3.4480896999999686, 4.147220299999958, 4.7807061999999405]","[6, 5, 4, 2, 7, 1, 0]","[5, 6, 4, 2, 7, 1, 0]",False
245,18,"[0.8145084999999881, 1.6474329999999782, 3.1807066999999734, 3.947566600000073, 5.631347300000016, 6.2976578000000245, 6.6970660000000635]","[6, 0, 2, 4, 8, 6, 0]","[6, 0, 2, 4, 8, 6, 0]",True
245,19,"[2.5815503000000035, 3.747798200000034, 4.397440800000027, 5.097879799999987, 6.647333099999969, 7.164357300000006, 7.74784109999996, 8.197242999999958]","[7, 7, 3, 8, 2, 4, 6, 1]","[7, 7, 3, 8, 2, 4, 6, 1]",True
245,20,"[1.2648262999999815, 3.131065499999977, 4.314617799999951, 5.047936399999912, 5.647667799999908, 6.36419879999994, 7.164071400000012, 7.7308572999999114]","[2, 7, 2, 6, 5, 5, 1, 3]","[7, 2, 6, 5, 5, 2, 1, 3]",False
245,21,"[2.2475515999999516, 2.8805926, 3.297216599999956, 3.8809188000000177, 4.531139800000005, 5.114868699999988, 5.814382599999931, 6.8811099999999215]","[0, 1, 1, 2, 4, 8, 2, 6]","[0, 1, 1, 2, 4, 8, 6, 6]",False
245,22,"[0.6472765000000891, 1.0643211000000292, 1.7484622000000627, 2.5475824000000102, 3.0646595000000616, 3.4639307000001054, 4.1141444000001, 4.880757100000096, 5.364132400000017]","[0, 2, 7, 4, 6, 3, 1, 4, 3]","[0, 2, 7, 4, 6, 0, 1, 3, 0]",False
245,23,"[1.9310912000000826, 2.597613000000024, 3.281339600000024, 3.79744160000007, 4.297597900000028, 4.914630700000089, 5.447885600000063, 5.947549600000002, 8.397198700000104]","[5, 3, 6, 3, 5, 4, 5, 8, 2]","[5, 3, 6, 3, 5, 4, 8, 2, 2]",False
245,24,"[1.0146327999999585, 1.6811027999999624, 2.414499800000044, 3.014417999999978, 3.6139620999999806, 4.148560599999996, 4.680916400000001, 8.081515500000023, 8.64786730000003]","[8, 6, 4, 6, 2, 8, 5, 2, 8]","[8, 6, 4, 6, 2, 8, 5, 2, 8]",True
245,25,"[1.7152723000000378, 2.0645839000000024, 2.847828100000015, 3.2978795999999875, 3.9138858000000027, 4.53191680000009, 5.11385949999999, 7.081311000000028, 7.680624400000056, 8.23044809999999]","[7, 7, 4, 5, 1, 5, 1, 4, 7, 2]","[7, 7, 4, 5, 1, 5, 1, 7, 2, 0]",False
245,26,"[0.5640179999999191, 1.1316630000000032, 1.797734300000002, 2.5476072999999815, 3.214672500000006, 4.6142088000000285, 5.064726899999982, 5.647260200000005, 6.081172199999969, 6.6471012999999175]","[6, 0, 7, 4, 7, 8, 2, 6, 2, 7]","[0, 7, 6, 2, 8, 3, 7, 0, 4, 0]",False
245,27,"[1.5647272999999586, 2.180747600000018, 2.897608699999978, 3.531392299999993, 4.2148359000000255, 4.831216799999993, 5.3480326000000105, 5.864347599999974, 6.4980183000000125, 7.147625800000014]","[7, 0, 1, 7, 2, 8, 7, 3, 7, 0]","[7, 0, 1, 7, 8, 5, 7, 3, 7, 3]",False
246,1,"[2.581054899999799, 3.164535899999464]","[5, 5]","[5, 5]",True
246,2,"[1.3308921000007103, 1.9307957000000897]","[5, 1]","[5, 1]",True
246,3,"[1.164633699998376, 2.081335599999875]","[6, 8]","[6, 8]",True
246,4,"[1.6482919000009133, 2.1146637000001647, 2.7638205000002927]","[8, 8, 1]","[8, 8, 1]",True
246,5,"[1.247208100001444, 2.197401700001137, 3.0973684000000503]","[2, 3, 2]","[2, 3, 2]",True
246,6,"[0.8135232999993605, 1.5485574999984237, 2.464030199998888]","[1, 8, 0]","[1, 8, 0]",True
246,7,"[1.0815155000000232, 2.064428899999257, 3.39830769999935, 4.1144855999991705]","[7, 6, 8, 1]","[7, 6, 8, 1]",True
246,8,"[0.9806819000004907, 1.6470028999992792, 2.4648610999993252, 3.1315051000001404]","[2, 0, 8, 7]","[2, 0, 8, 7]",True
246,9,"[0.8809435999992274, 1.530363199999556, 2.348637499999313, 3.215211199998521]","[6, 0, 8, 7]","[6, 0, 8, 7]",True
246,10,"[0.8477977000002284, 1.747870499999408, 2.5650478999996267, 3.2471310000000813, 3.647455500000433]","[6, 5, 7, 0, 0]","[6, 5, 7, 0, 0]",True
246,11,"[0.9485657999994146, 1.2480726999983744, 1.9305587999988347, 3.014189299999998, 3.8138543999994]","[7, 7, 0, 2, 0]","[7, 7, 0, 2, 0]",True
246,12,"[0.7473253999996814, 1.51373330000024, 2.2973270999991655, 3.1308618999992177, 3.731890099999873]","[4, 1, 0, 3, 4]","[4, 1, 0, 3, 4]",True
246,13,"[0.6645639999987907, 1.3973958999995375, 2.246913699998913, 2.831372900000133, 3.4480437000001984, 3.982225199999448]","[6, 4, 0, 6, 7, 6]","[6, 4, 0, 6, 7, 6]",True
246,14,"[1.1808435000002646, 1.8819079000004422, 2.68123100000048, 3.4308101999995415, 4.481810299999779, 5.064801200000147]","[2, 8, 6, 2, 3, 5]","[2, 8, 6, 2, 3, 5]",True
246,15,"[0.9636528999999427, 1.6975013999999646, 2.231748100000914, 3.0804626000008284, 3.8312458000000333, 4.447810000001482]","[1, 4, 8, 0, 5, 2]","[1, 4, 8, 0, 5, 2]",True
246,16,"[1.4140920999998343, 2.165023600000495, 3.4317704000004596, 4.231669700000566, 4.998671100000138, 5.748206300000675, 6.3649571999994805]","[3, 7, 8, 6, 7, 5, 3]","[3, 7, 8, 6, 7, 5, 3]",True
246,17,"[0.7471660999999585, 1.3314162000006036, 2.431110499999704, 3.2483286000006046, 4.015512800000579, 4.681298000001334, 5.147794300000896]","[3, 8, 6, 7, 4, 1, 1]","[3, 8, 6, 7, 4, 2, 1]",False
246,18,"[0.846748199999638, 1.9137219000003824, 2.5642937000011443, 3.214004200001, 4.014733500000148, 4.764984200000981, 5.398337700000411]","[0, 1, 5, 2, 7, 6, 2]","[0, 1, 5, 2, 7, 6, 2]",True
246,19,"[0.6301134000004822, 1.0637430000006134, 1.3637403000011545, 2.131803199999922, 2.397989300001427, 3.663792500001364, 4.564467500000319, 5.414876400000139]","[1, 0, 0, 8, 8, 0, 4, 8]","[1, 0, 0, 8, 8, 0, 4, 1]",False
246,20,"[0.9143034000007901, 1.2144877999999153, 1.7975951000007626, 2.19739170000139, 2.9143158000006224, 3.3481714999998076, 3.8650791000000027, 6.048372200000813]","[4, 4, 5, 3, 4, 5, 5, 6]","[4, 4, 5, 3, 4, 5, 6, 6]",False
246,21,"[1.8314236000005621, 3.548280299999533, 4.9483951999991405, 5.581166199999643, 6.281514399999651, 7.297836499999903, 9.032414400000562, 9.53244359999917]","[8, 8, 1, 7, 1, 0, 8, 8]","[8, 8, 7, 1, 0, 1, 8, 8]",False
247,1,"[1.1968216000004759, 1.9478060999990703]","[0, 6]","[0, 6]",True
247,2,"[0.9312029000011535, 1.7136951000011322]","[8, 1]","[8, 1]",True
247,3,"[1.0982910999991873, 1.9139414000001125]","[8, 3]","[8, 3]",True
247,4,"[1.214240700001028, 2.1808501000014076, 3.1313678000005893]","[6, 4, 7]","[6, 4, 7]",True
247,5,"[1.047626699999455, 1.898371600000246, 2.448565699998653]","[3, 8, 8]","[3, 8, 8]",True
247,6,"[1.2313396999998076, 1.6479481999995187, 2.363929499999358]","[7, 7, 2]","[7, 7, 2]",True
247,7,"[0.947367499999018, 1.9644680000001244, 2.948571599999923, 3.8644014000001334]","[4, 6, 8, 2]","[4, 6, 8, 2]",True
247,8,"[5.198119000000588, 5.84890649999943, 6.5822179000006145, 7.3313557999990735]","[2, 7, 4, 2]","[2, 7, 4, 2]",True
247,9,"[1.1643583999994007, 1.8635536999991018, 2.364039899999625, 3.0310120999984065]","[0, 7, 3, 2]","[7, 0, 3, 2]",False
247,10,"[0.6141551000000618, 1.230225999999675, 1.8981222999991587, 2.6982308000006014, 3.497530700000425]","[5, 0, 6, 8, 2]","[5, 0, 6, 8, 2]",True
247,11,"[0.8981081999991147, 1.646805200000017, 2.4820402000004833, 3.098483199999464, 3.830694799999037]","[7, 0, 4, 8, 1]","[7, 0, 4, 8, 1]",True
247,12,"[0.764411400001336, 1.4476327000011224, 2.163695100000041, 2.8312758000010945, 4.064016000000265]","[5, 6, 0, 1, 0]","[5, 6, 0, 1, 0]",True
247,13,"[0.9811098999998649, 1.897324399998979, 2.49936439999874, 3.23125489999984, 3.9493187999996735, 4.5312252000003355]","[7, 0, 8, 6, 8, 4]","[7, 0, 8, 6, 8, 4]",True
247,14,"[1.0805791999991925, 1.6981525999999576, 2.397233399999095, 3.24821829999928, 3.847066399999676, 4.4317589000002044]","[4, 8, 3, 8, 7, 5]","[4, 8, 3, 8, 0, 7]",False
247,15,"[0.8803298999991966, 1.1639218000000255, 1.7490388000005623, 2.3140863999997237, 3.1313246000008803, 3.948077099999864]","[1, 1, 7, 2, 4, 6]","[1, 1, 7, 2, 4, 6]",True
247,16,"[0.5808606000009604, 1.2969014000009338, 1.5805188000013004, 2.3813370000007126, 3.347180600001593, 3.6151524000015343, 4.2819238000010955]","[5, 0, 0, 7, 0, 5, 8]","[5, 0, 0, 7, 0, 0, 8]",False
247,17,"[1.0977777000007336, 1.8155330999998114, 3.098402100000385, 3.814873699999225, 4.464351900000111, 5.264626700000008, 8.331659100000252]","[4, 3, 8, 7, 5, 3, 4]","[4, 3, 7, 5, 3, 4, 4]",False
247,18,"[1.8302552999994077, 2.564417300000059, 3.1812826999994286, 3.8651590999998007, 4.431884199999331, 5.247638900000311, 5.8476145999993605]","[0, 6, 5, 4, 8, 2, 1]","[0, 5, 6, 8, 4, 2, 1]",False
249,1,"[1.2643824000006134, 2.1642390000006344]","[6, 3]","[6, 3]",True
249,2,"[1.1304307999998855, 1.664282199999434]","[2, 5]","[2, 5]",True
249,3,"[1.1472755000004327, 2.1145555000002787]","[1, 7]","[1, 7]",True
249,4,"[1.4136091000000306, 2.397376699999768, 9.799031199999263]","[1, 3, 7]","[1, 3, 7]",True
249,5,"[0.8820630999998684, 1.7806024999999863, 2.4476433999998335]","[8, 2, 5]","[8, 2, 5]",True
249,6,"[1.1140060999996422, 1.4805429999996704, 2.6476259000000937]","[1, 1, 2]","[1, 1, 2]",True
249,7,"[0.8810870000006616, 1.5470201000007364, 2.1974253000007593, 2.864837900000566]","[8, 1, 4, 6]","[8, 1, 4, 6]",True
249,8,"[0.8808908000000883, 1.4642606999996133, 2.132510000000366, 2.6480068999999276]","[3, 5, 7, 5]","[3, 5, 7, 5]",True
249,9,"[1.0969033000001218, 2.047401400000126, 2.631142500000351, 2.831413199999588]","[1, 3, 6, 6]","[1, 3, 6, 6]",True
249,10,"[0.8469583999994938, 1.5143412999996144, 1.7652890999997908, 2.547527299999274, 3.598886699999639]","[1, 6, 6, 2, 8]","[1, 6, 6, 2, 8]",True
249,11,"[1.0807678000001033, 1.7145528999999442, 2.8306885000001785, 3.0646802000001117, 3.9979824000001827]","[4, 3, 2, 2, 6]","[4, 3, 2, 2, 6]",True
249,12,"[0.7311737999998513, 1.2810214999999516, 1.4976755999996385, 2.0977532999995674, 2.6476904999999533]","[7, 3, 3, 5, 4]","[7, 3, 3, 5, 4]",True
249,13,"[1.0311139000004914, 1.8311204999999973, 2.5809070000004795, 3.4821355000003678, 4.431116100000509, 5.097708900000725]","[7, 5, 3, 8, 3, 2]","[7, 5, 3, 8, 3, 2]",True
249,14,"[1.3481062999999267, 1.9145466999998462, 2.4976944999998523, 3.2979300999995758, 4.081139400000211, 4.998468099999627]","[6, 4, 3, 6, 2, 8]","[6, 4, 3, 6, 2, 8]",True
249,15,"[1.7305360000000292, 2.6811523000005764, 3.3473169000008056, 4.031515300000137, 4.6975310000007084, 5.214885700000195]","[1, 5, 1, 5, 0, 6]","[1, 5, 1, 5, 0, 6]",True
249,16,"[1.1135792000004585, 1.8814180999997916, 2.464731899999606, 2.7645972999998776, 3.381225600000107, 4.11492410000028, 7.132325599999604]","[0, 6, 8, 6, 6, 5, 7]","[0, 8, 6, 6, 5, 7, 7]",False
249,17,"[1.7142284999999902, 2.3481973999996626, 2.9653637999999773, 3.581060399999842, 4.315009499999178, 4.5650364999992235, 5.031208699999297]","[6, 4, 1, 8, 7, 7, 3]","[4, 6, 8, 1, 7, 7, 3]",False
249,18,"[0.8469014000002062, 1.9309453000005306, 2.5808882999999696, 3.1478806000004624, 3.4484653999998045, 5.498319199999969, 6.548695800000132]","[1, 5, 6, 4, 6, 6, 7]","[1, 5, 4, 6, 6, 7, 6]",False
250,1,"[1.2308579999998983, 1.9979594000005818]","[1, 5]","[1, 5]",True
250,2,"[0.9982980000004318, 1.7808084999996936]","[6, 1]","[6, 1]",True
250,3,"[0.7310213999999178, 1.1644751000003453]","[0, 1]","[0, 1]",True
250,4,"[0.8311940999992657, 1.2645386999993207, 1.7139201999998477]","[6, 2, 0]","[6, 2, 0]",True
250,5,"[0.8982482000001255, 1.6649221000006946, 2.2810690000005707]","[6, 7, 6]","[6, 7, 6]",True
250,6,"[0.6988570000003165, 1.1479489000003014, 1.61498870000014]","[5, 6, 8]","[5, 6, 8]",True
250,7,"[0.41471350000028906, 0.9477843000004214, 1.6973424000007071, 2.19773990000067]","[2, 4, 0, 4]","[2, 4, 0, 4]",True
250,8,"[0.3646005000000514, 0.8976467000002231, 1.0807287000006909, 1.5648848999999245]","[7, 2, 2, 7]","[7, 2, 2, 7]",True
250,9,"[0.8980810000002748, 1.314337499999965, 1.764317099999971, 2.2979338000004645]","[4, 0, 1, 5]","[4, 0, 1, 5]",True
250,10,"[0.6987306999999419, 0.9475419999998849, 1.4810520000000906, 1.9649859000001015, 2.4310881999999765]","[0, 0, 4, 6, 4]","[0, 0, 4, 6, 4]",True
250,11,"[0.6649470000002111, 1.4307035000001633, 1.9315519000001586, 2.4646794000000227, 2.9142630999995163]","[6, 1, 7, 5, 3]","[6, 1, 7, 5, 3]",True
250,12,"[0.847609200000079, 1.3983500000003914, 1.814621000000443, 2.9986218000003646, 3.248449400000027]","[1, 6, 5, 7, 7]","[1, 6, 5, 7, 7]",True
250,13,"[0.747700399999303, 1.2307708999996976, 1.6812401999995927, 3.6475464999994074, 3.947445699999662, 4.481016799999452]","[3, 2, 7, 3, 3, 5]","[3, 2, 7, 3, 3, 5]",True
250,14,"[0.8648448000003555, 1.1147197000000233, 1.6976687000005768, 2.248074300000553, 2.6308739000005517, 3.0146419000002425]","[5, 5, 1, 8, 0, 7]","[5, 5, 1, 8, 0, 7]",True
250,15,"[1.7480737999994744, 2.7809956999999486, 3.3310639999999694, 3.9307192999995095, 7.430991000000176, 7.964292200000273]","[8, 2, 5, 0, 5, 3]","[8, 2, 5, 0, 5, 3]",True
250,16,"[0.4978686000004018, 0.9981956000001446, 1.6483595999998215, 2.2151357000002463, 2.8981058999997913, 3.56491509999978, 4.181717299999946]","[2, 5, 7, 8, 3, 7, 8]","[2, 5, 7, 8, 3, 7, 8]",True
250,17,"[1.0979809000000387, 1.680987699999605, 2.1979788999997254, 3.4145306000000346, 3.931374699999651, 4.397700099999383, 5.213891200000035]","[8, 1, 3, 7, 5, 2, 1]","[8, 1, 3, 7, 5, 2, 1]",True
250,18,"[0.5809668000001693, 1.4155208000001949, 1.981054600000789, 2.5310537000004842, 2.930734100000336, 3.481349300000147, 3.9146685000005164]","[2, 7, 1, 3, 0, 6, 4]","[2, 7, 1, 3, 0, 6, 4]",True
250,19,"[0.4977582999999868, 0.9971780999994735, 1.5976768000000448, 2.0978681999995388, 2.614972499999567, 3.147561799999494, 3.7308735999995406, 4.297408599999471]","[2, 0, 2, 8, 1, 3, 4, 2]","[2, 0, 2, 3, 8, 1, 4, 2]",False
250,20,"[0.8640297000001738, 1.164030900000398, 1.7475329999997484, 2.231574399999772, 3.480729599999904, 3.847406200000478, 4.364266399999906, 4.7313106999999945]","[1, 1, 4, 7, 2, 2, 5, 5]","[1, 1, 4, 7, 2, 2, 5, 5]",True
250,21,"[0.6148401999998896, 1.1645843999995122, 1.6816392999999152, 2.247500100000252, 2.847820799999681, 5.747810199999549, 6.2305968000000576, 6.914451399999962]","[6, 8, 0, 4, 3, 3, 1, 4]","[6, 4, 8, 0, 4, 3, 1, 4]",False
250,22,"[0.8138570000000982, 1.4980058000001009, 1.864460699999654, 2.2812600999995993, 2.6643622999999934, 3.330754700000398, 4.181077500000356, 4.730855200000406, 5.230936500000098]","[0, 6, 6, 5, 3, 1, 3, 4, 1]","[0, 6, 6, 5, 3, 1, 3, 4, 1]",True
250,23,"[0.7478559000001042, 1.18124059999991, 1.614209600000322, 2.081319199999598, 2.6315942000001087, 3.21413930000017, 4.230982600000061, 4.914510700000392, 5.681467299999895]","[1, 2, 7, 0, 6, 2, 7, 6, 8]","[1, 2, 0, 7, 6, 2, 0, 6, 4]",False
250,24,"[0.8649413000002824, 1.4481566000004022, 2.3643380000003162, 2.94768699999986, 4.848025900000721, 5.464583200000561, 6.081551900000704, 7.8141505000003235, 8.330863500000305]","[6, 1, 4, 4, 6, 6, 3, 2, 5]","[6, 6, 1, 4, 4, 6, 6, 0, 3]",False
250,25,"[0.9481040000000576, 1.4983408999996755, 2.115100799999709, 2.6640590999995766, 3.2315244000001258, 5.83088029999999, 6.697552700000415, 7.964410900000075, 8.681442099999913, 9.33121250000022]","[4, 7, 3, 0, 6, 4, 3, 3, 7, 4]","[4, 7, 3, 0, 6, 3, 0, 3, 7, 4]",False
250,26,"[1.0650923000002877, 1.597643899999639, 1.9147953000001507, 2.7142667999996775, 3.081961599999886, 3.4309048000004623, 4.347960099999909, 5.947374399999717, 6.38093790000039, 6.94755239999995]","[7, 8, 0, 8, 0, 0, 7, 4, 0, 2]","[6, 3, 3, 0, 7, 0, 7, 0, 4, 2]",False
250,27,"[0.7146608999992168, 1.164725499999804, 1.4645944999992935, 3.4144820999999865, 6.264793800000007, 9.064679199999773, 9.731612999999925, 10.881109999999353, 13.447430999999597, 14.180628699999943]","[3, 6, 6, 3, 7, 6, 8, 7, 0, 3]","[3, 6, 6, 3, 6, 7, 8, 3, 3, 0]",False
252,1,"[1.0483890000004976, 1.9651367000005848]","[3, 6]","[3, 6]",True
252,2,"[1.1975798999992548, 1.7975306999996974]","[1, 1]","[1, 1]",True
252,3,"[1.3313892999995005, 2.3315309999998135]","[3, 7]","[3, 7]",True
252,4,"[1.1646837999996933, 2.0144946000000346, 3.131751599999916]","[6, 0, 8]","[6, 0, 8]",True
252,5,"[1.0818927000000258, 1.8479428000000553, 2.7645708000000013]","[8, 4, 3]","[8, 4, 3]",True
252,6,"[1.1141797000000224, 1.8146990000004735, 2.4477301000006264]","[0, 3, 1]","[0, 3, 1]",True
252,7,"[1.380969300000288, 3.097517700000026, 3.914244999999937, 4.815230899999733]","[2, 1, 0, 8]","[2, 1, 0, 8]",True
252,8,"[1.3979425999996238, 2.764607299999625, 3.7148016999999527, 4.61431999999968]","[1, 5, 7, 0]","[1, 5, 7, 0]",True
252,9,"[1.364406499999859, 1.964531800000259, 2.8481191999999282, 3.631270900000345]","[4, 3, 8, 4]","[4, 3, 8, 4]",True
252,10,"[1.3485289999998713, 1.9478180000005523, 2.9815776000004917, 3.8476649000003817, 4.6311932999997225]","[8, 3, 5, 0, 2]","[8, 3, 5, 0, 2]",True
252,11,"[0.8984629999995377, 1.7312388999998802, 2.24803509999947, 3.1808469999996305, 3.5643365999994785]","[4, 3, 3, 1, 1]","[4, 3, 3, 1, 1]",True
252,12,"[1.5649771999997029, 3.4810578999995414, 4.414840599999479, 4.89816939999946, 5.881167900000037]","[8, 0, 5, 5, 4]","[8, 0, 5, 5, 4]",True
252,13,"[1.36435370000072, 2.1806701000004978, 2.9142248000007385, 4.031294700000217, 4.764229100000193, 5.3979854000008345]","[3, 0, 2, 4, 2, 5]","[3, 0, 2, 4, 2, 5]",True
252,14,"[1.681123999999727, 2.8313178999997035, 3.9981590999996115, 4.914394099999299, 5.39768709999953, 6.131233000000066]","[1, 5, 7, 1, 1, 3]","[1, 5, 7, 1, 1, 3]",True
252,15,"[1.0644810000003417, 1.514745700000276, 2.5976000000000568, 3.1638434000005873, 4.331208499999775, 4.9142648000006375]","[6, 6, 1, 0, 2, 5]","[6, 6, 1, 0, 2, 5]",True
252,16,"[0.9975701999992452, 1.6640537999992375, 1.9977810999998837, 2.9481268999998065, 3.54826839999987, 4.281783599999471, 5.21457669999927]","[1, 0, 0, 5, 7, 8, 6]","[1, 0, 0, 5, 7, 8, 6]",True
252,17,"[1.2478965999998763, 2.164394899999934, 3.198405499999353, 3.7807459999994535, 4.36437879999994, 4.981236999999965, 5.398145499999373]","[2, 1, 6, 0, 3, 5, 5]","[2, 1, 6, 0, 3, 5, 5]",True
252,18,"[0.8646172999997361, 1.9484067999992476, 2.631189999999151, 3.3647637999993094, 4.414105999999265, 5.264822699999968, 6.0141767999994045]","[6, 8, 2, 7, 1, 6, 2]","[6, 8, 2, 7, 1, 6, 2]",True
252,19,"[1.2318103000006886, 1.9983115000004545, 2.7980497000007745, 3.647571600000447, 4.682699500000126, 5.51496970000062, 6.2646244000006845, 7.081816300000355]","[1, 8, 4, 2, 5, 8, 6, 7]","[1, 8, 4, 2, 5, 8, 6, 7]",True
252,20,"[0.7141630000005534, 2.1661973999998736, 3.131475400000454, 4.214533200000005, 4.948289300000397, 5.797441499999877, 6.431089499999871, 7.114135700000588]","[0, 8, 6, 6, 8, 2, 5, 2]","[0, 8, 6, 6, 8, 2, 5, 2]",True
252,21,"[1.215104799999608, 2.1312466999997923, 3.1313239999999496, 3.9809777000000395, 4.647633399999904, 5.331020399999943, 6.064344399999754, 6.830988900000193]","[7, 3, 1, 3, 0, 3, 1, 3]","[7, 3, 1, 3, 0, 3, 1, 3]",True
252,22,"[1.2479889999995066, 1.997386999999435, 2.8982978999993065, 3.53137229999993, 4.1313781999997445, 5.18090519999987, 6.031330399999206, 6.814417399999911, 7.664633099999264]","[5, 0, 4, 3, 5, 6, 2, 6, 2]","[5, 0, 4, 3, 6, 2, 6, 2, 6]",False
252,23,"[1.0976424999998926, 1.9813775999991776, 2.547564099999363, 3.3485156999995525, 4.131404899999325, 5.1816603999996005, 5.531672399999479, 6.498065599999791, 7.281352599999991]","[0, 7, 2, 6, 4, 8, 8, 6, 8]","[0, 7, 2, 6, 4, 8, 8, 6, 8]",True
252,24,"[0.8816710000000967, 2.4486198999993576, 3.2646236000009594, 3.8810012999992978, 4.564513099999203, 5.29771669999991, 6.148869100000411, 6.547416099999282, 7.047771300000932]","[8, 5, 3, 6, 2, 4, 2, 3, 5]","[8, 5, 6, 3, 2, 4, 2, 2, 5]",False
252,25,"[1.048543000000791, 1.8308586000002833, 2.2643170000010286, 3.481430800000453, 4.281343300001026, 5.131429600000047, 5.79806439999993, 6.447472400001061, 7.047627600000851, 7.81444829999964]","[5, 0, 0, 7, 8, 2, 3, 2, 5, 6]","[5, 0, 0, 7, 8, 6, 2, 3, 2, 6]",False
252,26,"[1.1317353999984334, 1.7149104999989504, 2.581728999999541, 3.4144108000000415, 3.897568099999262, 5.081805099998746, 5.531187900000077, 5.998255799999242, 6.681268599999385, 7.381125799998699]","[7, 5, 3, 1, 1, 7, 6, 2, 5, 6]","[7, 5, 3, 1, 1, 7, 2, 6, 5, 2]",False
252,27,"[0.9981220000008761, 1.3993786000010004, 2.415063000000373, 3.5158748000012565, 4.380646200001138, 4.914629300001252, 5.431092300001183, 6.014791100000366, 6.647335000001476, 7.798002600000473]","[5, 5, 8, 7, 3, 6, 0, 5, 2, 7]","[5, 5, 8, 7, 0, 6, 2, 6, 0, 7]",False
253,1,"[0.9143999999996595, 1.5808602999995855]","[5, 3]","[5, 3]",True
253,2,"[1.3141658999993524, 1.781910799999423]","[2, 8]","[2, 8]",True
253,3,"[1.3151626000008036, 2.3140071000007083]","[7, 3]","[7, 3]",True
253,4,"[0.9970123000002786, 1.6808418999999049, 2.380782000000181]","[0, 3, 4]","[0, 3, 4]",True
253,5,"[1.0804952999997113, 1.5984717000001183, 2.280177800000274]","[3, 8, 0]","[3, 8, 0]",True
253,6,"[1.580029900000227, 2.0972474999998667, 2.5801816000002873]","[0, 3, 0]","[0, 3, 0]",True
253,7,"[1.1142085000001316, 1.5474217000000863, 2.2476598000002923, 2.6480241999997816]","[3, 3, 5, 5]","[3, 3, 5, 5]",True
253,8,"[1.7482161999996606, 2.430201600000146, 3.0312008999999307, 3.8640173000003415]","[7, 0, 4, 0]","[7, 0, 4, 0]",True
253,9,"[1.1136884999996255, 1.6973117999996248, 2.3975312000002305, 2.8150187999999616]","[2, 3, 4, 4]","[2, 3, 4, 4]",True
253,10,"[0.8810759999996662, 1.264495999999781, 2.26382779999949, 2.780787799999416, 3.2812346999999136]","[7, 7, 1, 3, 6]","[7, 7, 1, 3, 6]",True
253,11,"[0.9633592000000135, 1.5814806999997018, 2.1301598000000013, 2.798063000000184, 3.11477399999967]","[0, 5, 0, 8, 8]","[0, 5, 0, 8, 8]",True
253,12,"[2.647614700000304, 3.1813052999996216, 4.147626500000115, 4.680613800000174, 5.248084599999856]","[5, 7, 3, 1, 6]","[5, 7, 3, 1, 6]",True
253,13,"[0.846653000000515, 1.4309803000005559, 2.064564600000267, 2.6308710000002975, 3.2642695000004096, 3.8483506000002308]","[0, 2, 7, 5, 4, 7]","[0, 2, 7, 5, 4, 7]",True
253,14,"[0.7975752999991528, 1.214209299999311, 1.7970714999992197, 2.330793199999789, 3.264090299999225, 4.182987099999991]","[3, 1, 2, 4, 3, 7]","[3, 1, 2, 4, 3, 7]",True
253,15,"[0.36354519999986223, 0.713605799999641, 1.7151617999998052, 2.514049200000045, 3.131498499999907, 3.6649288999997225]","[1, 1, 7, 3, 7, 8]","[1, 1, 7, 3, 7, 8]",True
253,16,"[0.7476817000006122, 1.3142983000007007, 1.780632200000582, 2.1979637000004004, 2.764341900000545, 3.3474229000003106, 4.081526400000257]","[7, 3, 6, 3, 4, 2, 1]","[7, 6, 3, 6, 4, 2, 1]",False
253,17,"[0.8325644000005923, 1.347952300000543, 1.7983900999997786, 2.147030000000086, 2.66429750000043, 3.1982248000003892, 3.8641877000000022]","[7, 8, 1, 1, 3, 1, 0]","[7, 8, 1, 1, 3, 1, 0]",True
253,18,"[1.4467593999997916, 2.147555700000339, 2.9148134000006394, 3.9141118000006827, 4.51413330000014, 5.232462900000428, 5.897324100000333]","[0, 5, 8, 2, 1, 7, 0]","[0, 5, 8, 2, 1, 7, 0]",True
253,19,"[1.0145087000000785, 1.4814095000001544, 1.9975162000000637, 2.647689000000355, 5.631320600000436, 6.464693599999919, 7.331283499999699, 7.781515499999841]","[6, 8, 1, 8, 5, 3, 3, 1]","[6, 8, 5, 3, 5, 3, 3, 1]",False
253,20,"[0.6140597000003254, 1.1466855999997279, 1.7139313999996375, 2.131364699999722, 2.5643616999996084, 2.7140587000003507, 3.36398410000038, 4.397668999999951]","[4, 0, 2, 8, 4, 4, 3, 0]","[4, 0, 2, 8, 4, 4, 3, 4]",False
253,21,"[1.2475919999997132, 1.6312200000002122, 2.0139595000000554, 2.5637986000001547, 2.9481502999997247, 3.381498499999907, 3.831353699999454, 4.681554199999482]","[6, 8, 7, 0, 2, 8, 5, 7]","[6, 8, 2, 0, 8, 7, 5, 5]",False
255,1,"[1.081131699999787, 1.8981677000001582]","[2, 4]","[2, 4]",True
255,2,"[0.8313539999999193, 1.5145706000002974]","[2, 3]","[2, 3]",True
255,3,"[0.8474172999995062, 1.3644820999998046]","[0, 2]","[0, 2]",True
255,4,"[1.1818544999996448, 1.5976596000000427, 2.464545800000451]","[6, 2, 4]","[6, 2, 4]",True
255,5,"[0.8156466000000364, 1.6473860000005516, 2.130684800000381]","[5, 0, 0]","[5, 0, 0]",True
255,6,"[0.5819894000005661, 1.2149855000006937, 1.8811752999999953]","[8, 4, 0]","[8, 4, 0]",True
255,7,"[0.6810377000001608, 1.731827799999337, 2.2813319999995656, 3.197684899999331]","[1, 8, 3, 2]","[1, 8, 3, 2]",True
255,8,"[0.9311066999998729, 1.9644852000001265, 2.714584299999842, 3.448611400000118]","[3, 1, 3, 6]","[3, 1, 3, 6]",True
255,9,"[0.9310974999998507, 1.6659632999999303, 2.297515199999907, 3.264343700000609]","[0, 7, 0, 8]","[0, 7, 0, 0]",False
255,10,"[1.031219699999383, 2.0158323999994536, 2.3648412999991706, 3.247927799999161, 3.8976624999995693]","[2, 5, 5, 3, 2]","[2, 5, 5, 3, 2]",True
255,11,"[0.8482368000004499, 1.5977537000007942, 2.214275400000588, 2.8815446000007796, 3.4645675000001575]","[6, 1, 0, 7, 3]","[6, 1, 0, 7, 3]",True
255,12,"[0.6651193999996394, 1.3142532000001665, 2.9148004999997283, 3.614775400000326, 4.047726699999657]","[7, 1, 3, 5, 1]","[7, 1, 3, 5, 1]",True
255,13,"[0.9479201000003741, 1.7813772000008612, 2.6483387000007497, 3.4315120000001116, 3.9816974000004848, 4.965116300000773]","[4, 2, 5, 5, 7, 5]","[4, 2, 7, 5, 5, 7]",False
255,14,"[0.7479444999999032, 1.6821473999998489, 4.031418699999449, 4.864376999999877, 5.6814721999999165, 6.6976260999999795]","[2, 7, 2, 8, 0, 8]","[2, 7, 7, 2, 8, 0]",False
255,15,"[2.3144947000000684, 3.0655638000007457, 3.848100700000032, 4.547597499999938, 5.348186100000021, 6.231400399999984]","[4, 5, 6, 0, 5, 6]","[4, 5, 6, 0, 6, 5]",False
263,1,"[1.0809186000005866, 1.8148817000001145]","[6, 8]","[6, 8]",True
263,2,"[1.1649603999994724, 1.7473135000000184]","[8, 3]","[8, 3]",True
263,3,"[1.0805977999998504, 1.8312301999994816]","[4, 5]","[4, 5]",True
263,4,"[0.8976710000006278, 1.4476795999999013, 2.0807967000000644]","[1, 3, 4]","[1, 3, 4]",True
263,5,"[0.7309563999997408, 1.4142410999993444, 2.063763299999664]","[3, 0, 1]","[3, 0, 1]",True
263,6,"[0.8645835999996052, 1.5488103999996383, 2.130562600000303]","[8, 7, 2]","[8, 7, 2]",True
263,7,"[0.7302160999997795, 1.3801131999998688, 2.731463399999484, 3.714976899999783]","[1, 0, 6, 3]","[1, 0, 6, 3]",True
263,8,"[1.0810395999997127, 1.9805457999991631, 2.9644910999995773, 3.6139877999994496]","[6, 3, 5, 2]","[6, 3, 5, 2]",True
263,9,"[0.9310626000005868, 1.6473125000002256, 2.0472961000004943, 3.2314164999997956]","[5, 3, 3, 6]","[5, 3, 3, 6]",True
263,10,"[0.7307062999998379, 1.280117700000119, 1.897130699999252, 2.7644721999995454, 3.413715400000001]","[5, 0, 1, 6, 0]","[5, 0, 1, 6, 0]",True
263,11,"[1.0979065000001356, 1.3637287999999899, 2.081245499999568, 2.497784899999715, 3.2309498999993593]","[0, 0, 5, 5, 4]","[0, 0, 5, 5, 4]",True
263,12,"[1.0481570000001739, 1.3314301000000341, 2.080549599999358, 2.7978769999999713, 3.580613999999514]","[7, 7, 3, 2, 1]","[7, 7, 3, 2, 1]",True
263,13,"[0.7802388999998584, 1.297819200000049, 1.8968965999993088, 2.096933199999512, 2.6308515999999145, 3.2320104000000356]","[1, 5, 0, 0, 4, 8]","[1, 5, 0, 0, 4, 8]",True
263,14,"[0.6306124000002455, 0.8308706000007078, 1.4315702000003512, 1.9803313000002163, 2.3814288000003216, 3.014711800000441]","[3, 3, 8, 0, 8, 3]","[3, 3, 8, 0, 8, 3]",True
263,15,"[0.8809340999996493, 1.0807498000003761, 1.7808665000002293, 1.9974450999998226, 2.81410169999981, 3.3640580999999656]","[3, 3, 2, 2, 3, 1]","[3, 3, 2, 2, 3, 1]",True
263,16,"[0.7136592000006203, 1.2649630000005345, 1.930389699999978, 2.497792500000287, 2.68115410000064, 3.530416999999943, 4.11462070000016]","[2, 8, 1, 6, 6, 0, 6]","[2, 8, 1, 6, 6, 0, 6]",True
263,17,"[0.7803659000001062, 1.414491000000453, 2.2146575000006123, 2.8475962000002255, 3.4479542000008223, 4.047810800000661, 4.213985800000046]","[0, 7, 8, 1, 6, 1, 1]","[0, 7, 8, 1, 6, 1, 1]",True
263,18,"[0.7969739999998637, 1.3981958000003942, 2.01423320000049, 2.9314040999997815, 3.347730800000136, 3.9653361000000587, 4.531178899999759]","[0, 6, 4, 7, 1, 8, 1]","[0, 6, 4, 7, 1, 8, 1]",True
263,19,"[0.8803765000002386, 1.4809621000003972, 1.6642965999999433, 2.682796099999905, 4.764148299999761, 5.398467199999686, 5.914787900000192, 8.51648750000004]","[2, 6, 6, 7, 8, 0, 1, 5]","[2, 6, 6, 7, 0, 8, 5, 5]",False
263,20,"[0.8811053999997966, 1.7641334999998435, 2.7310183999998117, 3.3145948999999746, 3.9812626999992062, 4.414809099999729, 5.114893599999959, 8.181501099999878]","[6, 3, 5, 3, 5, 6, 5, 3]","[6, 3, 5, 3, 6, 5, 3, 3]",False
263,21,"[1.0315694000000803, 1.8642740999994203, 2.497614299999441, 3.9471287999995184, 4.414549000000079, 4.830919099999846, 5.4981471999999485, 5.814233500000228]","[6, 4, 1, 5, 3, 1, 2, 2]","[6, 4, 3, 1, 5, 2, 5, 2]",False
269,1,"[0.5800126999993154, 1.697408600000017]","[0, 3]","[0, 3]",True
269,2,"[1.1475292000004629, 1.8647349000002578]","[6, 7]","[6, 7]",True
269,3,"[1.1802491999997073, 1.8641062999995484]","[2, 4]","[2, 4]",True
269,4,"[1.1474459999999453, 1.8134656000001996, 2.81410649999998]","[6, 0, 2]","[6, 0, 2]",True
269,5,"[0.6641891999997824, 1.4484238999993977, 2.3651187999994363]","[6, 2, 8]","[6, 2, 8]",True
269,6,"[0.6814037000003736, 1.4302643000000899, 2.3146625999997923]","[8, 1, 6]","[8, 1, 6]",True
269,7,"[1.1638433999996778, 2.831006699999307, 3.6149804999995467, 4.165156699999898]","[1, 5, 7, 7]","[1, 5, 7, 7]",True
269,8,"[0.9971081000003323, 1.8645102000000406, 2.7807167000000845, 3.7644516000000294]","[4, 8, 4, 6]","[4, 8, 4, 6]",True
269,9,"[0.9314165999994657, 1.7310817999996289, 2.480880199999774, 3.114611799999693]","[8, 7, 3, 2]","[8, 7, 3, 2]",True
269,10,"[0.8145254000000932, 1.563961100000597, 2.314541600000666, 2.999010100000305, 3.814603600000737]","[8, 4, 8, 8, 4]","[8, 4, 8, 8, 4]",True
269,11,"[0.9299163000005137, 1.7471580999999787, 2.5143552999998064, 2.8143544000004113, 3.7477262000002156]","[0, 3, 3, 6, 5]","[0, 3, 6, 6, 5]",False
269,12,"[1.0140239000002111, 1.7141630000005534, 2.997172700000192, 3.564595300000292, 5.0313820000001215]","[5, 3, 1, 7, 3]","[5, 3, 1, 7, 3]",True
269,13,"[1.2301583999997092, 1.980635699999766, 2.947459699999854, 3.681194400000095, 4.63096349999978, 5.214842600000338]","[1, 4, 3, 6, 1, 7]","[1, 4, 3, 6, 1, 7]",True
269,14,"[0.8465710999998919, 1.6972444000002724, 2.5141818000001876, 3.1980133999995815, 3.7477153999998336, 4.197373799999696]","[0, 4, 3, 8, 2, 2]","[0, 4, 3, 8, 2, 2]",True
269,15,"[1.397402200000215, 2.280413700000281, 2.8469734999998764, 3.447485400000005, 5.7649185999998735, 6.431712499999776]","[5, 2, 1, 0, 5, 7]","[5, 2, 0, 1, 5, 7]",False
269,16,"[0.9140405999996801, 1.6312025999995967, 2.3480185999997047, 3.064525499999945, 8.514662900000076, 9.182227700000112, 9.815133799999785]","[5, 8, 6, 5, 0, 8, 2]","[5, 8, 6, 5, 0, 8, 2]",True
269,17,"[3.64778109999952, 4.780886200000168, 5.448084399999971, 6.248476499999924, 7.131334599999718, 7.630847299999914, 10.96463059999951]","[2, 5, 6, 8, 0, 0, 5]","[5, 2, 6, 8, 2, 0, 0]",False
269,18,"[0.8806569999997009, 1.8136850999999297, 2.830365499999971, 6.1155104999998, 7.498478200000136, 7.831798299999718, 12.34908759999962]","[4, 2, 1, 3, 2, 7, 7]","[4, 2, 1, 3, 7, 7, 7]",False
269,19,"[1.2132652000000235, 2.0973036999994292, 3.098542599999746, 4.064514699999563, 5.048152100000152, 10.132437700000082, 11.048733900000116, 11.61469599999964]","[0, 3, 4, 5, 4, 8, 1, 0]","[0, 3, 7, 4, 5, 8, 1, 0]",False
269,20,"[1.7312541000001147, 5.265400199999931, 6.097541299999648, 7.166566099999727, 7.93101200000001, 14.566050899999937, 15.566391000000294, 18.532276099999763]","[0, 3, 2, 6, 7, 0, 4, 6]","[0, 3, 2, 7, 0, 6, 4, 0]",False
269,21,"[6.7812655000007, 7.581954600000245, 8.181923099999949, 9.06547910000063, 9.815486500000588, 10.532338100000743, 12.066704600000776, 12.56488310000077]","[3, 7, 5, 8, 6, 8, 0, 6]","[3, 7, 5, 8, 6, 8, 2, 0]",False
271,1,"[0.6975215000020398, 1.0812329000000318]","[3, 7]","[3, 7]",True
271,2,"[1.163848100000905, 1.7307187999977032]","[2, 5]","[2, 5]",True
271,3,"[0.7640706000020145, 1.263901900001656]","[4, 1]","[4, 1]",True
271,4,"[1.5975195999999414, 2.2650620000022172, 3.149376500001381]","[5, 2, 5]","[5, 2, 5]",True
271,5,"[0.8307989000022644, 1.447546200000943, 1.963757400000759]","[2, 2, 1]","[2, 2, 1]",True
271,6,"[0.49705550000362564, 1.3974081000014849, 2.130071500003396]","[3, 8, 0]","[3, 8, 0]",True
271,7,"[0.5643114999984391, 1.0135585999996692, 1.3310426999996707, 1.7655326999993122]","[8, 2, 0, 5]","[8, 2, 0, 5]",True
271,8,"[0.7467810999987705, 1.2139652999976533, 3.4971796999998332, 3.98177609999766]","[0, 3, 0, 6]","[0, 3, 0, 6]",True
271,9,"[0.4633996999982628, 1.097345399997721, 1.5309610000003886, 1.9471334999980172]","[0, 3, 5, 1]","[0, 3, 5, 1]",True
271,10,"[0.5979373999980453, 1.0474639999993087, 1.4150536999986798, 2.0979674000009254, 2.3639599999987695]","[0, 5, 1, 8, 1]","[0, 5, 1, 8, 1]",True
